condition,subject,trial,sub_task,cat,x,y,xt,yt,resp,rt,fb
congruent_pointer_middle,29,0,2,107,40.06,30.94,0.04,0.49,107,3967,Incorrect
congruent_pointer_middle,29,1,2,107,40.93,23.49,0.05,0.37,107,1858,Correct
congruent_pointer_middle,29,2,1,102,32.66,53.75,0.04,0.84,106,1388,Incorrect
congruent_pointer_middle,29,3,1,106,48.26,20.9,0.05,0.33,102,2196,Incorrect
congruent_pointer_middle,29,4,2,107,83.22,62.09,0.09,0.98,100,3217,Incorrect
congruent_pointer_middle,29,5,2,107,88.69,63.6,0.1,1.0,107,1265,Correct
congruent_pointer_middle,29,6,2,100,50.58,65.26,0.06,1.03,107,1376,Incorrect
congruent_pointer_middle,29,7,2,100,64.86,87.81,0.07,1.38,100,1323,Correct
congruent_pointer_middle,29,8,2,107,67.55,56.19,0.08,0.88,100,1436,Incorrect
congruent_pointer_middle,29,9,2,107,61.26,48.78,0.07,0.77,107,734,Correct
congruent_pointer_middle,29,10,2,107,63.77,43.09,0.07,0.68,107,746,Correct
congruent_pointer_middle,29,11,2,107,56.59,39.14,0.06,0.61,107,833,Correct
congruent_pointer_middle,29,12,2,100,40.24,61.39,0.05,0.96,107,672,Incorrect
congruent_pointer_middle,29,13,2,100,36.84,61.45,0.04,0.97,100,523,Correct
congruent_pointer_middle,29,14,2,100,38.26,60.79,0.04,0.95,100,1132,Correct
congruent_pointer_middle,29,15,1,106,47.78,36.64,0.05,0.58,106,986,Correct
congruent_pointer_middle,29,16,1,102,62.65,86.2,0.07,1.35,106,2535,Incorrect
congruent_pointer_middle,29,17,1,106,34.4,22.48,0.04,0.35,106,1307,Correct
congruent_pointer_middle,29,18,2,100,35.28,67.1,0.04,1.05,107,1661,Incorrect
congruent_pointer_middle,29,19,1,102,50.38,65.19,0.06,1.02,106,4834,Incorrect
congruent_pointer_middle,29,20,1,106,78.62,59.89,0.09,0.94,102,861,Incorrect
congruent_pointer_middle,29,21,2,107,42.38,29.64,0.05,0.47,107,3258,Correct
congruent_pointer_middle,29,22,1,106,63.91,52.36,0.07,0.82,102,1154,Incorrect
congruent_pointer_middle,29,23,1,102,23.46,48.19,0.03,0.76,102,2588,Correct
congruent_pointer_middle,29,24,2,107,83.41,55.22,0.09,0.87,100,1709,Incorrect
congruent_pointer_middle,29,25,1,102,40.25,48.9,0.05,0.77,106,1074,Incorrect
congruent_pointer_middle,29,26,1,106,88.06,64.71,0.1,1.02,102,2616,Incorrect
congruent_pointer_middle,29,27,1,106,34.87,15.76,0.04,0.25,102,2139,Incorrect
congruent_pointer_middle,29,28,2,100,56.55,68.8,0.06,1.08,100,1152,Correct
congruent_pointer_middle,29,29,1,102,44.84,59.15,0.05,0.93,106,897,Incorrect
congruent_pointer_middle,29,30,2,107,76.61,56.07,0.09,0.88,100,1108,Incorrect
congruent_pointer_middle,29,31,1,102,45.62,63.67,0.05,1.0,106,1787,Incorrect
congruent_pointer_middle,29,32,1,102,51.34,70.64,0.06,1.11,102,816,Correct
congruent_pointer_middle,29,33,2,107,74.82,48.46,0.08,0.76,100,1170,Incorrect
congruent_pointer_middle,29,34,2,107,60.68,42.62,0.07,0.67,107,2105,Correct
congruent_pointer_middle,29,35,1,106,59.02,33.2,0.07,0.52,106,2127,Correct
congruent_pointer_middle,29,36,2,107,36.0,13.87,0.04,0.22,100,2101,Incorrect
congruent_pointer_middle,29,37,1,106,81.79,61.82,0.09,0.97,102,2297,Incorrect
congruent_pointer_middle,29,38,2,107,42.38,32.84,0.05,0.52,107,3027,Correct
congruent_pointer_middle,29,39,2,107,57.98,26.65,0.06,0.42,107,1935,Correct
congruent_pointer_middle,29,40,2,107,60.93,51.17,0.07,0.8,107,1112,Correct
congruent_pointer_middle,29,41,2,100,40.34,66.66,0.05,1.05,107,909,Incorrect
congruent_pointer_middle,29,42,2,100,21.41,44.57,0.02,0.7,100,2419,Correct
congruent_pointer_middle,29,43,2,100,22.46,36.04,0.03,0.57,100,781,Correct
congruent_pointer_middle,29,44,2,107,67.51,39.2,0.08,0.62,107,2410,Correct
congruent_pointer_middle,29,45,2,107,67.65,58.98,0.08,0.93,107,841,Correct
congruent_pointer_middle,29,46,2,107,84.51,56.64,0.09,0.89,107,581,Correct
congruent_pointer_middle,29,47,2,100,45.09,55.69,0.05,0.87,100,1836,Correct
congruent_pointer_middle,29,48,1,106,40.28,23.75,0.05,0.37,106,740,Correct
congruent_pointer_middle,29,49,2,107,57.05,43.72,0.06,0.69,100,1123,Incorrect
congruent_pointer_middle,29,50,1,102,51.98,82.11,0.06,1.29,106,689,Incorrect
congruent_pointer_middle,29,51,1,106,49.56,19.99,0.06,0.31,102,1076,Incorrect
congruent_pointer_middle,29,52,2,107,49.5,27.88,0.06,0.44,107,1894,Correct
congruent_pointer_middle,29,53,2,100,28.3,42.87,0.03,0.67,100,1341,Correct
congruent_pointer_middle,29,54,2,107,51.38,24.84,0.06,0.39,107,731,Correct
congruent_pointer_middle,29,55,2,100,39.57,50.91,0.04,0.8,100,897,Correct
congruent_pointer_middle,29,56,1,106,61.53,31.6,0.07,0.5,106,694,Correct
congruent_pointer_middle,29,57,1,102,38.41,68.23,0.04,1.07,106,1015,Incorrect
congruent_pointer_middle,29,58,2,100,38.1,68.4,0.04,1.07,100,684,Correct
congruent_pointer_middle,29,59,1,106,50.45,28.93,0.06,0.45,102,702,Incorrect
congruent_pointer_middle,29,60,2,107,79.12,63.8,0.09,1.0,100,753,Incorrect
congruent_pointer_middle,29,61,1,102,40.53,56.24,0.05,0.88,106,1746,Incorrect
congruent_pointer_middle,29,62,1,102,64.18,80.73,0.07,1.27,102,1158,Correct
congruent_pointer_middle,29,63,2,100,45.85,61.34,0.05,0.96,107,1799,Incorrect
congruent_pointer_middle,29,64,2,107,66.32,57.66,0.07,0.91,100,1546,Incorrect
congruent_pointer_middle,29,65,2,100,61.84,83.21,0.07,1.31,107,727,Incorrect
congruent_pointer_middle,29,66,2,100,63.37,80.56,0.07,1.27,100,1593,Correct
congruent_pointer_middle,29,67,1,106,66.16,51.49,0.07,0.81,102,1891,Incorrect
congruent_pointer_middle,29,68,2,100,21.07,35.62,0.02,0.56,100,1130,Correct
congruent_pointer_middle,29,69,1,102,57.18,77.15,0.06,1.21,106,1287,Incorrect
congruent_pointer_middle,29,70,1,102,53.47,74.31,0.06,1.17,102,826,Correct
congruent_pointer_middle,29,71,2,107,68.68,40.51,0.08,0.64,100,837,Incorrect
congruent_pointer_middle,29,72,1,102,60.81,83.49,0.07,1.31,106,711,Incorrect
congruent_pointer_middle,29,73,1,102,42.76,59.29,0.05,0.93,102,780,Correct
congruent_pointer_middle,29,74,1,102,67.1,83.82,0.08,1.32,106,1470,Incorrect
congruent_pointer_middle,29,75,2,107,68.47,51.55,0.08,0.81,107,1075,Correct
congruent_pointer_middle,29,76,2,100,57.41,66.07,0.06,1.04,100,1246,Correct
congruent_pointer_middle,29,77,2,100,29.66,57.77,0.03,0.91,107,3530,Incorrect
congruent_pointer_middle,29,78,2,100,24.08,36.12,0.03,0.57,107,977,Incorrect
congruent_pointer_middle,29,79,1,102,49.0,75.84,0.05,1.19,106,1779,Incorrect
congruent_pointer_middle,29,80,2,100,20.5,51.84,0.02,0.81,100,777,Correct
congruent_pointer_middle,29,81,1,106,60.11,28.82,0.07,0.45,102,1889,Incorrect
congruent_pointer_middle,29,82,1,102,24.61,52.49,0.03,0.82,106,2012,Incorrect
congruent_pointer_middle,29,83,1,102,56.09,64.85,0.06,1.02,102,775,Correct
congruent_pointer_middle,29,84,1,102,39.77,52.66,0.04,0.83,106,691,Incorrect
congruent_pointer_middle,29,85,2,107,55.83,42.66,0.06,0.67,100,663,Incorrect
congruent_pointer_middle,29,86,1,106,63.05,36.98,0.07,0.58,106,655,Correct
congruent_pointer_middle,29,87,2,100,57.59,81.86,0.06,1.29,107,1447,Incorrect
congruent_pointer_middle,29,88,2,107,46.96,39.55,0.05,0.62,100,778,Incorrect
congruent_pointer_middle,29,89,2,107,87.62,68.62,0.1,1.08,107,1853,Correct
congruent_pointer_middle,29,90,1,102,68.57,85.85,0.08,1.35,106,3059,Incorrect
congruent_pointer_middle,29,91,1,102,20.66,35.59,0.02,0.56,106,2503,Incorrect
congruent_pointer_middle,29,92,2,100,32.71,58.51,0.04,0.92,100,2033,Correct
congruent_pointer_middle,29,93,1,102,12.44,38.33,0.01,0.6,102,1039,Correct
congruent_pointer_middle,29,94,1,102,21.42,49.16,0.02,0.77,102,515,Correct
congruent_pointer_middle,29,95,1,106,88.02,64.98,0.1,1.02,106,899,Correct
congruent_pointer_middle,29,96,1,102,26.45,43.05,0.03,0.68,102,696,Correct
congruent_pointer_middle,29,97,1,102,18.55,32.99,0.02,0.52,102,636,Correct
congruent_pointer_middle,29,98,1,102,27.26,59.6,0.03,0.94,102,727,Correct
congruent_pointer_middle,29,99,1,102,64.58,84.17,0.07,1.32,106,842,Incorrect
congruent_pointer_middle,29,100,2,100,32.18,49.07,0.04,0.77,107,1643,Incorrect
congruent_pointer_middle,29,101,2,100,46.52,66.32,0.05,1.04,100,1915,Correct
congruent_pointer_middle,29,102,1,106,71.52,53.35,0.08,0.84,106,2354,Correct
congruent_pointer_middle,29,103,1,106,58.06,44.21,0.06,0.69,106,1044,Correct
congruent_pointer_middle,29,104,1,106,36.44,15.19,0.04,0.24,102,682,Incorrect
congruent_pointer_middle,29,105,1,102,21.32,35.8,0.02,0.56,106,742,Incorrect
congruent_pointer_middle,29,106,1,106,71.23,49.59,0.08,0.78,102,2699,Incorrect
congruent_pointer_middle,29,107,1,106,41.56,15.03,0.05,0.24,106,779,Correct
congruent_pointer_middle,29,108,2,107,55.93,31.87,0.06,0.5,100,3329,Incorrect
congruent_pointer_middle,29,109,1,102,22.77,52.5,0.03,0.82,102,848,Correct
congruent_pointer_middle,29,110,2,107,32.95,17.1,0.04,0.27,100,844,Incorrect
congruent_pointer_middle,29,111,2,107,50.47,28.83,0.06,0.45,107,1080,Correct
congruent_pointer_middle,29,112,2,107,75.94,65.25,0.08,1.02,100,853,Incorrect
congruent_pointer_middle,29,113,2,100,45.24,63.17,0.05,0.99,100,1704,Correct
congruent_pointer_middle,29,114,1,102,61.81,82.29,0.07,1.29,102,1275,Correct
congruent_pointer_middle,29,115,1,106,57.63,29.46,0.06,0.46,106,2092,Correct
congruent_pointer_middle,29,116,1,106,66.1,42.62,0.07,0.67,106,1725,Correct
congruent_pointer_middle,29,117,1,102,37.69,68.88,0.04,1.08,106,2498,Incorrect
congruent_pointer_middle,29,118,2,100,34.78,49.05,0.04,0.77,100,2052,Correct
congruent_pointer_middle,29,119,2,100,55.03,75.68,0.06,1.19,107,1295,Incorrect
congruent_pointer_middle,29,120,1,106,37.73,11.34,0.04,0.18,106,4470,Correct
congruent_pointer_middle,29,121,1,106,54.78,22.43,0.06,0.35,106,743,Correct
congruent_pointer_middle,29,122,2,107,81.37,62.25,0.09,0.98,107,1595,Correct
congruent_pointer_middle,29,123,1,102,39.0,63.29,0.04,0.99,106,942,Incorrect
congruent_pointer_middle,29,124,2,100,65.98,78.06,0.07,1.23,107,2746,Incorrect
congruent_pointer_middle,29,125,1,106,45.24,31.97,0.05,0.5,102,2171,Incorrect
congruent_pointer_middle,29,126,2,107,40.49,15.9,0.05,0.25,107,1337,Correct
congruent_pointer_middle,29,127,1,106,54.59,41.99,0.06,0.66,106,1331,Correct
congruent_pointer_middle,29,128,1,106,47.88,34.56,0.05,0.54,106,2466,Correct
congruent_pointer_middle,29,129,2,107,87.18,68.04,0.1,1.07,107,1430,Correct
congruent_pointer_middle,29,130,1,106,49.84,33.53,0.06,0.53,106,669,Correct
congruent_pointer_middle,29,131,1,102,47.17,72.67,0.05,1.14,106,1548,Incorrect
congruent_pointer_middle,29,132,2,107,45.86,20.81,0.05,0.33,100,2649,Correct
congruent_pointer_middle,29,133,2,107,73.82,57.25,0.08,0.9,100,3017,Incorrect
congruent_pointer_middle,29,134,1,102,25.22,49.14,0.03,0.77,106,4086,Incorrect
congruent_pointer_middle,29,135,2,107,76.37,60.07,0.09,0.94,100,3118,Incorrect
congruent_pointer_middle,29,136,1,102,36.05,49.23,0.04,0.77,106,890,Incorrect
congruent_pointer_middle,29,137,2,100,33.63,56.54,0.04,0.89,100,905,Correct
congruent_pointer_middle,29,138,2,100,67.5,89.96,0.08,1.41,107,687,Incorrect
congruent_pointer_middle,29,139,1,106,84.73,55.95,0.09,0.88,102,824,Incorrect
congruent_pointer_middle,29,140,2,100,40.98,65.47,0.05,1.03,107,546,Incorrect
congruent_pointer_middle,29,141,2,100,47.99,58.95,0.05,0.93,100,909,Correct
congruent_pointer_middle,29,142,1,102,31.81,53.75,0.04,0.84,106,752,Incorrect
congruent_pointer_middle,29,143,1,106,52.95,41.03,0.06,0.64,102,1940,Incorrect
congruent_pointer_middle,29,144,2,107,70.45,54.65,0.08,0.86,107,826,Correct
congruent_pointer_middle,29,145,2,100,15.14,40.14,0.02,0.63,107,2188,Incorrect
congruent_pointer_middle,29,146,2,107,42.02,24.48,0.05,0.38,107,979,Correct
congruent_pointer_middle,29,147,2,100,51.94,74.7,0.06,1.17,100,1307,Correct
congruent_pointer_middle,29,148,1,102,11.05,35.17,0.01,0.55,106,875,Incorrect
congruent_pointer_middle,29,149,1,102,35.53,43.51,0.04,0.68,102,713,Correct
congruent_pointer_middle,29,150,1,102,26.37,46.34,0.03,0.73,106,829,Incorrect
congruent_pointer_middle,29,151,1,106,80.4,65.09,0.09,1.02,106,1046,Correct
congruent_pointer_middle,29,152,1,106,42.0,16.5,0.05,0.26,106,1074,Correct
congruent_pointer_middle,29,153,1,106,70.82,42.59,0.08,0.67,106,1269,Correct
congruent_pointer_middle,29,154,1,102,38.53,52.14,0.04,0.82,106,678,Incorrect
congruent_pointer_middle,29,155,1,102,40.43,72.16,0.05,1.13,102,837,Correct
congruent_pointer_middle,29,156,1,102,64.17,86.03,0.07,1.35,102,1216,Correct
congruent_pointer_middle,29,157,1,102,50.34,64.98,0.06,1.02,106,1001,Incorrect
congruent_pointer_middle,29,158,1,106,53.86,28.76,0.06,0.45,102,1171,Incorrect
congruent_pointer_middle,29,159,2,100,53.4,77.24,0.06,1.21,107,875,Incorrect
congruent_pointer_middle,29,160,2,107,57.04,37.68,0.06,0.59,100,919,Incorrect
congruent_pointer_middle,29,161,1,106,41.11,13.08,0.05,0.21,106,1894,Correct
congruent_pointer_middle,29,162,2,107,46.83,32.09,0.05,0.5,107,2755,Correct
congruent_pointer_middle,29,163,1,102,47.91,58.53,0.05,0.92,106,2705,Incorrect
congruent_pointer_middle,29,164,1,106,78.43,59.37,0.09,0.93,102,2375,Incorrect
congruent_pointer_middle,29,165,1,106,44.45,23.28,0.05,0.37,106,644,Correct
congruent_pointer_middle,29,166,2,100,29.02,38.71,0.03,0.61,107,877,Incorrect
congruent_pointer_middle,29,167,1,106,86.35,60.69,0.1,0.95,106,711,Correct
congruent_pointer_middle,29,168,1,102,14.91,36.04,0.02,0.57,102,1641,Correct
congruent_pointer_middle,29,169,1,106,39.22,14.59,0.04,0.23,106,2745,Correct
congruent_pointer_middle,29,170,1,106,54.8,28.63,0.06,0.45,106,782,Correct
congruent_pointer_middle,29,171,2,107,76.39,52.74,0.09,0.83,107,697,Correct
congruent_pointer_middle,29,172,2,100,69.88,87.97,0.08,1.38,107,811,Incorrect
congruent_pointer_middle,29,173,2,100,40.42,73.07,0.05,1.15,100,2606,Correct
congruent_pointer_middle,29,174,1,106,38.45,25.24,0.04,0.4,102,2924,Incorrect
congruent_pointer_middle,29,175,2,107,84.13,65.35,0.09,1.03,107,2839,Correct
congruent_pointer_middle,29,176,1,106,46.26,36.08,0.05,0.57,106,2832,Correct
congruent_pointer_middle,29,177,1,106,46.4,34.64,0.05,0.54,106,960,Correct
congruent_pointer_middle,29,178,2,100,44.57,69.4,0.05,1.09,107,2507,Incorrect
congruent_pointer_middle,29,179,2,100,35.18,53.0,0.04,0.83,100,2279,Correct
congruent_pointer_middle,29,180,1,106,62.33,29.64,0.07,0.47,106,1424,Correct
congruent_pointer_middle,29,181,1,106,47.85,24.28,0.05,0.38,106,753,Correct
congruent_pointer_middle,29,182,2,107,79.18,63.62,0.09,1.0,100,571,Incorrect
congruent_pointer_middle,29,183,1,106,67.07,50.37,0.08,0.79,106,822,Correct
congruent_pointer_middle,29,184,1,102,18.44,32.31,0.02,0.51,102,1023,Correct
congruent_pointer_middle,29,185,2,107,82.6,67.28,0.09,1.06,100,2440,Incorrect
congruent_pointer_middle,29,186,1,102,59.33,87.0,0.07,1.37,106,823,Incorrect
congruent_pointer_middle,29,187,2,107,59.24,40.82,0.07,0.64,100,818,Incorrect
congruent_pointer_middle,29,188,1,106,41.89,15.21,0.05,0.24,106,675,Correct
congruent_pointer_middle,29,189,2,107,30.36,13.1,0.03,0.21,107,739,Correct
congruent_pointer_middle,29,190,2,107,61.83,43.88,0.07,0.69,107,1496,Correct
congruent_pointer_middle,29,191,2,100,67.56,81.74,0.08,1.28,107,660,Incorrect
congruent_pointer_middle,29,192,1,106,47.23,28.67,0.05,0.45,102,659,Incorrect
congruent_pointer_middle,29,193,1,102,31.72,53.24,0.04,0.84,106,643,Incorrect
congruent_pointer_middle,29,194,2,107,68.92,59.6,0.08,0.94,107,3536,Correct
congruent_pointer_middle,29,195,2,100,41.06,70.81,0.05,1.11,100,3582,Correct
congruent_pointer_middle,29,196,2,100,20.0,49.36,0.02,0.78,100,933,Correct
congruent_pointer_middle,29,197,2,100,36.81,61.97,0.04,0.97,100,1273,Correct
congruent_pointer_middle,29,198,2,100,31.68,62.84,0.04,0.99,107,846,Incorrect
congruent_pointer_middle,29,199,2,107,60.96,43.11,0.07,0.68,100,786,Incorrect
congruent_pointer_middle,29,200,2,107,53.2,41.81,0.06,0.66,107,940,Correct
congruent_pointer_middle,29,201,2,100,49.4,60.08,0.06,0.94,100,687,Correct
congruent_pointer_middle,29,202,1,106,44.86,19.4,0.05,0.3,106,780,Correct
congruent_pointer_middle,29,203,2,107,65.53,33.14,0.07,0.52,107,2763,Correct
congruent_pointer_middle,29,204,1,106,71.0,47.86,0.08,0.75,106,623,Correct
congruent_pointer_middle,29,205,1,106,54.83,38.34,0.06,0.6,106,984,Correct
congruent_pointer_middle,29,206,2,107,72.53,55.55,0.08,0.87,107,965,Correct
congruent_pointer_middle,29,207,1,102,38.92,56.8,0.04,0.89,106,974,Incorrect
congruent_pointer_middle,29,208,1,102,54.58,70.41,0.06,1.11,102,572,Correct
congruent_pointer_middle,29,209,2,100,27.76,50.52,0.03,0.79,100,875,Correct
congruent_pointer_middle,29,210,2,107,39.24,23.39,0.04,0.37,107,1648,Correct
congruent_pointer_middle,29,211,2,107,31.52,16.79,0.04,0.26,107,1355,Correct
congruent_pointer_middle,29,212,1,106,59.38,30.64,0.07,0.48,106,878,Correct
congruent_pointer_middle,29,213,1,102,13.94,30.71,0.02,0.48,106,3130,Incorrect
congruent_pointer_middle,29,214,1,106,76.24,65.05,0.09,1.02,106,1518,Correct
congruent_pointer_middle,29,215,2,100,36.82,59.7,0.04,0.94,100,706,Correct
congruent_pointer_middle,29,216,2,100,28.68,49.17,0.03,0.77,100,812,Correct
congruent_pointer_middle,29,217,2,100,43.95,73.47,0.05,1.15,100,1618,Correct
congruent_pointer_middle,29,218,1,106,71.9,46.65,0.08,0.73,106,2398,Correct
congruent_pointer_middle,29,219,2,107,76.79,59.88,0.09,0.94,107,876,Correct
congruent_pointer_middle,29,220,1,106,44.69,36.18,0.05,0.57,106,671,Correct
congruent_pointer_middle,29,221,1,102,57.23,80.76,0.06,1.27,102,1407,Correct
congruent_pointer_middle,29,222,2,107,71.45,41.66,0.08,0.65,107,899,Correct
congruent_pointer_middle,29,223,1,106,81.61,66.87,0.09,1.05,106,650,Correct
congruent_pointer_middle,29,224,2,107,59.98,42.42,0.07,0.67,100,942,Incorrect
congruent_pointer_middle,29,225,2,107,56.86,26.7,0.06,0.42,107,644,Correct
congruent_pointer_middle,29,226,1,106,67.29,52.59,0.08,0.83,106,2018,Correct
congruent_pointer_middle,29,227,1,102,34.54,62.76,0.04,0.99,102,1463,Correct
congruent_pointer_middle,29,228,1,106,69.0,46.64,0.08,0.73,102,775,Incorrect
congruent_pointer_middle,29,229,2,100,19.36,46.69,0.02,0.73,107,850,Incorrect
congruent_pointer_middle,29,230,1,102,50.08,78.58,0.06,1.23,106,1248,Incorrect
congruent_pointer_middle,29,231,2,100,38.44,49.18,0.04,0.77,100,925,Correct
congruent_pointer_middle,29,232,2,107,72.25,52.83,0.08,0.83,100,624,Incorrect
congruent_pointer_middle,29,233,2,107,86.3,63.61,0.1,1.0,107,625,Correct
congruent_pointer_middle,29,234,2,107,82.44,57.87,0.09,0.91,100,962,Incorrect
congruent_pointer_middle,29,235,2,107,60.79,37.12,0.07,0.58,107,1763,Correct
congruent_pointer_middle,29,236,2,107,69.5,58.73,0.08,0.92,107,1100,Correct
congruent_pointer_middle,29,237,2,100,29.33,47.72,0.03,0.75,100,2113,Correct
congruent_pointer_middle,29,238,2,100,29.96,39.71,0.03,0.62,107,1422,Incorrect
congruent_pointer_middle,29,239,2,100,53.76,82.65,0.06,1.3,107,2696,Incorrect
congruent_pointer_middle,29,240,2,107,76.04,51.08,0.09,0.8,107,6220,Correct
congruent_pointer_middle,29,241,1,106,48.2,39.51,0.05,0.62,102,736,Incorrect
congruent_pointer_middle,29,242,2,100,15.82,40.85,0.02,0.64,107,3119,Incorrect
congruent_pointer_middle,29,243,1,106,33.57,17.56,0.04,0.28,106,2825,Correct
congruent_pointer_middle,29,244,1,106,79.53,60.76,0.09,0.95,106,6672,Correct
congruent_pointer_middle,29,245,2,100,42.56,56.3,0.05,0.88,107,3023,Incorrect
congruent_pointer_middle,29,246,2,107,49.56,19.52,0.06,0.31,107,7205,Correct
congruent_pointer_middle,29,247,2,100,34.91,67.74,0.04,1.06,107,922,Incorrect
congruent_pointer_middle,29,248,1,106,60.89,52.4,0.07,0.82,102,3135,Incorrect
congruent_pointer_middle,29,249,2,107,59.83,35.1,0.07,0.55,107,1827,Correct
congruent_pointer_middle,29,250,1,106,83.02,59.68,0.09,0.94,106,3920,Correct
congruent_pointer_middle,29,251,1,102,20.78,46.19,0.02,0.73,106,802,Incorrect
congruent_pointer_middle,29,252,1,106,46.68,32.01,0.05,0.5,102,928,Incorrect
congruent_pointer_middle,29,253,1,102,24.17,46.45,0.03,0.73,102,1213,Correct
congruent_pointer_middle,29,254,2,100,65.9,77.87,0.07,1.22,107,1228,Incorrect
congruent_pointer_middle,29,255,1,106,51.95,28.09,0.06,0.44,102,672,Incorrect
congruent_pointer_middle,29,256,2,100,31.91,46.18,0.04,0.73,107,2300,Incorrect
congruent_pointer_middle,29,257,1,102,39.78,51.73,0.04,0.81,102,942,Correct
congruent_pointer_middle,29,258,2,100,60.21,70.63,0.07,1.11,107,1127,Incorrect
congruent_pointer_middle,29,259,2,100,39.45,46.86,0.04,0.74,100,5270,Correct
congruent_pointer_middle,29,260,1,102,33.64,55.18,0.04,0.87,106,723,Incorrect
congruent_pointer_middle,29,261,2,100,41.08,52.19,0.05,0.82,107,1193,Incorrect
congruent_pointer_middle,29,262,1,106,73.46,63.46,0.08,1.0,102,2581,Incorrect
congruent_pointer_middle,29,263,1,102,50.72,67.65,0.06,1.06,102,2862,Correct
congruent_pointer_middle,29,264,2,100,42.92,54.81,0.05,0.86,100,3746,Correct
congruent_pointer_middle,29,265,2,100,36.22,67.24,0.04,1.06,107,7018,Incorrect
congruent_pointer_middle,29,266,1,106,67.4,55.39,0.08,0.87,102,1348,Incorrect
congruent_pointer_middle,29,267,1,102,10.29,32.28,0.01,0.51,106,686,Incorrect
congruent_pointer_middle,29,268,2,107,31.76,14.52,0.04,0.23,100,1149,Incorrect
congruent_pointer_middle,29,269,1,106,34.99,20.2,0.04,0.32,106,694,Correct
congruent_pointer_middle,29,270,2,100,27.19,55.65,0.03,0.87,100,1499,Correct
congruent_pointer_middle,29,271,2,107,68.57,57.96,0.08,0.91,107,581,Correct
congruent_pointer_middle,29,272,1,106,46.02,23.92,0.05,0.38,102,876,Incorrect
congruent_pointer_middle,29,273,1,102,10.7,35.23,0.01,0.55,106,553,Incorrect
congruent_pointer_middle,29,274,1,106,67.66,57.85,0.08,0.91,106,1282,Correct
congruent_pointer_middle,29,275,2,100,24.19,53.98,0.03,0.85,107,1256,Incorrect
congruent_pointer_middle,29,276,2,100,21.5,48.35,0.02,0.76,100,1853,Correct
congruent_pointer_middle,29,277,1,102,49.35,70.44,0.06,1.11,102,2034,Correct
congruent_pointer_middle,29,278,1,102,64.05,86.92,0.07,1.37,106,1086,Incorrect
congruent_pointer_middle,29,279,2,107,46.57,34.81,0.05,0.55,107,661,Correct
congruent_pointer_middle,29,280,1,102,58.01,72.63,0.06,1.14,102,4268,Correct
congruent_pointer_middle,29,281,1,106,85.12,68.05,0.1,1.07,102,2227,Incorrect
congruent_pointer_middle,29,282,2,100,21.7,38.41,0.02,0.6,107,730,Incorrect
congruent_pointer_middle,29,283,2,100,20.82,50.22,0.02,0.79,100,1883,Correct
congruent_pointer_middle,29,284,2,100,28.86,53.6,0.03,0.84,100,974,Correct
congruent_pointer_middle,29,285,1,102,38.96,50.22,0.04,0.79,102,1007,Correct
congruent_pointer_middle,29,286,1,106,67.34,58.19,0.08,0.91,106,1309,Correct
congruent_pointer_middle,29,287,2,107,80.76,58.69,0.09,0.92,107,1307,Correct
congruent_pointer_middle,29,288,1,102,69.53,86.64,0.08,1.36,102,1249,Correct
congruent_pointer_middle,29,289,2,107,74.09,52.8,0.08,0.83,107,797,Correct
congruent_pointer_middle,29,290,2,107,63.51,32.23,0.07,0.51,100,1193,Incorrect
congruent_pointer_middle,29,291,2,100,31.12,63.55,0.03,1.0,100,1392,Correct
congruent_pointer_middle,29,292,2,100,67.66,85.74,0.08,1.35,107,662,Incorrect
congruent_pointer_middle,29,293,1,106,39.63,15.04,0.04,0.24,102,861,Incorrect
congruent_pointer_middle,29,294,2,100,35.26,52.8,0.04,0.83,107,778,Incorrect
congruent_pointer_middle,29,295,2,100,25.17,51.86,0.03,0.81,100,603,Correct
congruent_pointer_middle,29,296,2,100,54.59,68.37,0.06,1.07,107,2075,Incorrect
congruent_pointer_middle,29,297,1,102,19.62,38.51,0.02,0.6,106,1196,Incorrect
congruent_pointer_middle,29,298,1,106,57.94,49.94,0.06,0.78,102,1447,Incorrect
congruent_pointer_middle,29,299,2,100,58.07,74.36,0.06,1.17,107,711,Incorrect
congruent_pointer_middle,29,300,1,106,83.19,62.7,0.09,0.98,102,662,Incorrect
congruent_pointer_middle,29,301,1,102,35.51,46.34,0.04,0.73,102,986,Correct
congruent_pointer_middle,29,302,2,107,59.08,41.42,0.07,0.65,107,1732,Correct
congruent_pointer_middle,29,303,2,100,28.33,38.46,0.03,0.6,100,620,Correct
congruent_pointer_middle,29,304,1,106,50.03,24.99,0.06,0.39,106,2956,Correct
congruent_pointer_middle,29,305,1,102,22.45,38.75,0.03,0.61,102,946,Correct
congruent_pointer_middle,29,306,2,107,58.42,41.86,0.07,0.66,107,1076,Correct
congruent_pointer_middle,29,307,1,106,40.54,30.62,0.05,0.48,102,1809,Incorrect
congruent_pointer_middle,29,308,2,107,51.83,29.81,0.06,0.47,107,1365,Correct
congruent_pointer_middle,29,309,2,107,85.84,69.18,0.1,1.09,100,601,Incorrect
congruent_pointer_middle,29,310,2,107,44.97,36.84,0.05,0.58,107,700,Correct
congruent_pointer_middle,29,311,2,100,65.96,86.75,0.07,1.36,100,863,Correct
congruent_pointer_middle,29,312,1,102,36.46,53.66,0.04,0.84,106,1500,Incorrect
congruent_pointer_middle,29,313,2,107,66.14,57.93,0.07,0.91,107,1846,Correct
congruent_pointer_middle,29,314,2,100,66.19,79.59,0.07,1.25,100,2651,Correct
congruent_pointer_middle,29,315,1,106,65.42,50.01,0.07,0.79,106,1339,Correct
congruent_pointer_middle,29,316,1,102,60.65,78.76,0.07,1.24,102,610,Correct
congruent_pointer_middle,29,317,2,107,72.97,40.24,0.08,0.63,107,586,Correct
congruent_pointer_middle,29,318,1,102,65.97,84.71,0.07,1.33,102,640,Correct
congruent_pointer_middle,29,319,1,106,46.61,34.93,0.05,0.55,106,940,Correct
congruent_pointer_middle,29,320,2,100,43.95,54.4,0.05,0.85,107,1603,Incorrect
congruent_pointer_middle,29,321,1,106,32.1,17.13,0.04,0.27,102,783,Incorrect
congruent_pointer_middle,29,322,1,102,25.23,52.25,0.03,0.82,106,569,Incorrect
congruent_pointer_middle,29,323,2,107,57.95,40.88,0.06,0.64,100,634,Incorrect
congruent_pointer_middle,29,324,2,100,37.6,53.86,0.04,0.85,107,2035,Incorrect
congruent_pointer_middle,29,325,2,107,81.26,59.43,0.09,0.93,100,1321,Incorrect
congruent_pointer_middle,29,326,1,106,49.48,20.58,0.06,0.32,106,2849,Correct
congruent_pointer_middle,29,327,1,102,26.06,44.36,0.03,0.7,102,875,Correct
congruent_pointer_middle,29,328,2,107,66.25,48.19,0.07,0.76,107,3120,Correct
congruent_pointer_middle,29,329,1,102,23.7,52.01,0.03,0.82,102,2063,Correct
congruent_pointer_middle,29,330,1,106,75.03,53.5,0.08,0.84,106,692,Correct
congruent_pointer_middle,29,331,2,100,29.46,57.96,0.03,0.91,107,1012,Incorrect
congruent_pointer_middle,29,332,2,107,47.2,30.8,0.05,0.48,107,879,Correct
congruent_pointer_middle,29,333,1,102,51.01,71.31,0.06,1.12,102,2732,Correct
congruent_pointer_middle,29,334,1,102,32.36,60.64,0.04,0.95,102,2010,Correct
congruent_pointer_middle,29,335,2,100,29.36,45.19,0.03,0.71,107,1667,Incorrect
congruent_pointer_middle,29,336,1,106,76.71,50.91,0.09,0.8,102,577,Incorrect
congruent_pointer_middle,29,337,2,107,41.49,23.56,0.05,0.37,107,1577,Correct
congruent_pointer_middle,29,338,2,107,71.35,43.54,0.08,0.68,100,707,Incorrect
congruent_pointer_middle,29,339,2,100,30.46,59.44,0.03,0.93,107,657,Incorrect
congruent_pointer_middle,29,340,1,102,41.93,61.74,0.05,0.97,106,1171,Incorrect
congruent_pointer_middle,29,341,1,106,88.73,66.12,0.1,1.04,102,649,Incorrect
congruent_pointer_middle,29,342,2,107,59.59,36.98,0.07,0.58,100,784,Incorrect
congruent_pointer_middle,29,343,2,100,43.61,65.34,0.05,1.03,107,1826,Incorrect
congruent_pointer_middle,29,344,2,107,44.84,26.44,0.05,0.42,100,592,Incorrect
congruent_pointer_middle,29,345,1,102,53.98,74.85,0.06,1.18,106,574,Incorrect
congruent_pointer_middle,29,346,1,106,63.34,33.13,0.07,0.52,102,625,Incorrect
congruent_pointer_middle,29,347,2,107,77.94,55.16,0.09,0.87,107,642,Correct
congruent_pointer_middle,29,348,1,102,33.65,48.59,0.04,0.76,102,2046,Correct
congruent_pointer_middle,29,349,2,107,55.79,47.22,0.06,0.74,107,1274,Correct
congruent_pointer_middle,29,350,1,102,29.56,43.7,0.03,0.69,102,2162,Correct
congruent_pointer_middle,29,351,1,106,71.38,51.21,0.08,0.8,106,2654,Correct
congruent_pointer_middle,29,352,2,107,33.15,18.92,0.04,0.3,107,926,Correct
congruent_pointer_middle,29,353,2,100,58.58,75.05,0.07,1.18,100,1534,Correct
congruent_pointer_middle,29,354,1,102,45.74,76.18,0.05,1.2,102,1649,Correct
congruent_pointer_middle,29,355,1,102,33.03,65.45,0.04,1.03,106,1301,Incorrect
congruent_pointer_middle,29,356,2,107,45.92,20.41,0.05,0.32,107,2654,Correct
congruent_pointer_middle,29,357,1,106,40.09,17.23,0.04,0.27,106,834,Correct
congruent_pointer_middle,29,358,1,106,75.27,55.37,0.08,0.87,102,1202,Incorrect
congruent_pointer_middle,29,359,1,102,20.61,35.11,0.02,0.55,102,3190,Correct
congruent_pointer_middle,29,360,2,107,78.37,57.27,0.09,0.9,107,742,Correct
congruent_pointer_middle,29,361,1,102,45.92,61.94,0.05,0.97,106,2571,Incorrect
congruent_pointer_middle,29,362,2,107,60.38,40.98,0.07,0.64,107,2335,Correct
congruent_pointer_middle,29,363,1,102,49.65,67.46,0.06,1.06,102,789,Correct
congruent_pointer_middle,29,364,2,100,24.15,44.33,0.03,0.7,100,2132,Correct
congruent_pointer_middle,29,365,1,102,43.21,52.71,0.05,0.83,106,460,Incorrect
congruent_pointer_middle,29,366,1,106,81.37,61.83,0.09,0.97,102,570,Incorrect
congruent_pointer_middle,29,367,2,100,23.79,46.09,0.03,0.72,107,1076,Incorrect
congruent_pointer_middle,29,368,2,107,38.87,18.93,0.04,0.3,100,596,Incorrect
congruent_pointer_middle,29,369,1,102,38.47,57.3,0.04,0.9,106,583,Incorrect
congruent_pointer_middle,29,370,2,100,51.62,70.12,0.06,1.1,107,825,Incorrect
congruent_pointer_middle,29,371,2,107,76.94,60.87,0.09,0.96,100,1127,Incorrect
congruent_pointer_middle,29,372,1,102,35.42,53.22,0.04,0.84,102,1813,Correct
congruent_pointer_middle,29,373,1,102,60.74,74.49,0.07,1.17,106,1235,Incorrect
congruent_pointer_middle,29,374,2,100,36.91,54.56,0.04,0.86,100,1214,Correct
congruent_pointer_middle,29,375,1,102,47.25,54.62,0.05,0.86,106,1961,Incorrect
congruent_pointer_middle,29,376,1,106,53.55,24.36,0.06,0.38,106,947,Correct
congruent_pointer_middle,29,377,1,102,15.66,34.36,0.02,0.54,102,1603,Correct
congruent_pointer_middle,29,378,2,100,25.02,42.98,0.03,0.68,100,709,Correct
congruent_pointer_middle,29,379,2,100,15.77,35.98,0.02,0.57,107,2000,Incorrect
congruent_pointer_middle,29,380,2,100,32.26,53.8,0.04,0.85,100,2255,Correct
congruent_pointer_middle,29,381,1,106,69.87,56.0,0.08,0.88,106,2947,Correct
congruent_pointer_middle,29,382,2,100,58.54,86.42,0.07,1.36,100,1085,Correct
congruent_pointer_middle,29,383,1,102,63.01,85.15,0.07,1.34,106,3580,Incorrect
congruent_pointer_middle,29,384,1,106,76.17,61.73,0.09,0.97,102,584,Incorrect
congruent_pointer_middle,29,385,1,102,16.98,36.62,0.02,0.58,102,2419,Correct
congruent_pointer_middle,29,386,1,102,38.81,65.32,0.04,1.03,102,1109,Correct
congruent_pointer_middle,29,387,2,107,58.75,48.76,0.07,0.77,107,1050,Correct
congruent_pointer_middle,29,388,2,100,47.83,54.85,0.05,0.86,107,3434,Incorrect
congruent_pointer_middle,29,389,2,100,27.45,58.53,0.03,0.92,100,1512,Correct
congruent_pointer_middle,29,390,2,107,49.06,36.3,0.05,0.57,107,1023,Correct
congruent_pointer_middle,29,391,2,107,70.93,49.91,0.08,0.78,107,3529,Correct
congruent_pointer_middle,29,392,1,106,78.74,53.69,0.09,0.84,102,952,Incorrect
congruent_pointer_middle,29,393,1,106,49.54,36.76,0.06,0.58,106,935,Correct
congruent_pointer_middle,29,394,2,100,19.74,44.43,0.02,0.7,100,1994,Correct
congruent_pointer_middle,29,395,2,107,77.27,48.22,0.09,0.76,107,630,Correct
congruent_pointer_middle,29,396,2,100,27.81,58.41,0.03,0.92,107,753,Incorrect
congruent_pointer_middle,29,397,1,102,57.61,81.54,0.06,1.28,106,680,Incorrect
congruent_pointer_middle,29,398,1,106,39.85,17.62,0.04,0.28,106,823,Correct
