condition,subject,trial,sub_task,cat,x,y,xt,yt,resp,rt,fb
incongruent_pinky_thumb,24,0,2,113,43.85,30.24,0.05,0.48,113,3648,Correct
incongruent_pinky_thumb,24,1,1,109,74.01,62.07,0.08,0.98,99,1414,Incorrect
incongruent_pinky_thumb,24,2,2,112,41.62,63.88,0.05,1.0,113,5847,Incorrect
incongruent_pinky_thumb,24,3,2,113,70.8,55.51,0.08,0.87,113,2338,Correct
incongruent_pinky_thumb,24,4,2,112,40.28,51.56,0.05,0.81,112,1272,Correct
incongruent_pinky_thumb,24,5,1,99,36.14,52.96,0.04,0.83,109,1186,Incorrect
incongruent_pinky_thumb,24,6,1,99,13.1,35.87,0.01,0.56,109,3754,Incorrect
incongruent_pinky_thumb,24,7,2,113,79.6,57.82,0.09,0.91,112,1566,Incorrect
incongruent_pinky_thumb,24,8,2,112,48.69,77.07,0.05,1.21,113,2658,Incorrect
incongruent_pinky_thumb,24,9,1,99,49.38,79.48,0.06,1.25,109,2595,Incorrect
incongruent_pinky_thumb,24,10,1,109,78.81,52.49,0.09,0.82,109,5159,Correct
incongruent_pinky_thumb,24,11,2,112,59.13,85.44,0.07,1.34,113,2234,Incorrect
incongruent_pinky_thumb,24,12,1,99,55.41,64.1,0.06,1.01,109,4315,Incorrect
incongruent_pinky_thumb,24,13,2,112,17.12,35.39,0.02,0.56,112,1335,Correct
incongruent_pinky_thumb,24,14,2,112,39.2,63.73,0.04,1.0,113,926,Incorrect
incongruent_pinky_thumb,24,15,2,113,39.57,23.94,0.04,0.38,112,1973,Incorrect
incongruent_pinky_thumb,24,16,2,112,49.93,69.11,0.06,1.09,113,767,Incorrect
incongruent_pinky_thumb,24,17,2,113,63.5,51.76,0.07,0.81,112,919,Incorrect
incongruent_pinky_thumb,24,18,2,112,16.09,34.24,0.02,0.54,112,1067,Correct
incongruent_pinky_thumb,24,19,2,112,30.55,54.28,0.03,0.85,112,2744,Correct
incongruent_pinky_thumb,24,20,2,112,42.55,70.88,0.05,1.11,112,2228,Correct
incongruent_pinky_thumb,24,21,1,109,49.21,40.31,0.06,0.63,99,757,Incorrect
incongruent_pinky_thumb,24,22,1,99,53.76,79.87,0.06,1.25,109,423,Incorrect
incongruent_pinky_thumb,24,23,2,113,54.29,45.97,0.06,0.72,112,935,Incorrect
incongruent_pinky_thumb,24,24,2,112,47.57,58.82,0.05,0.92,113,876,Incorrect
incongruent_pinky_thumb,24,25,2,112,38.71,51.81,0.04,0.81,112,5264,Correct
incongruent_pinky_thumb,24,26,1,109,75.51,62.92,0.08,0.99,109,1826,Correct
incongruent_pinky_thumb,24,27,1,109,57.76,26.35,0.06,0.41,99,3376,Incorrect
incongruent_pinky_thumb,24,28,2,113,80.07,53.07,0.09,0.83,112,2693,Incorrect
incongruent_pinky_thumb,24,29,2,113,59.33,30.83,0.07,0.48,113,2978,Correct
incongruent_pinky_thumb,24,30,2,113,72.77,48.05,0.08,0.75,113,4625,Correct
incongruent_pinky_thumb,24,31,2,113,72.32,47.24,0.08,0.74,113,1079,Correct
incongruent_pinky_thumb,24,32,1,99,36.0,58.78,0.04,0.92,109,1448,Incorrect
incongruent_pinky_thumb,24,33,1,99,28.2,51.33,0.03,0.81,99,1063,Correct
incongruent_pinky_thumb,24,34,1,99,46.17,77.35,0.05,1.21,99,1082,Correct
incongruent_pinky_thumb,24,35,2,113,55.43,23.27,0.06,0.37,112,2140,Incorrect
incongruent_pinky_thumb,24,36,1,109,31.84,16.51,0.04,0.26,99,842,Incorrect
incongruent_pinky_thumb,24,37,1,109,69.89,43.62,0.08,0.69,109,870,Correct
incongruent_pinky_thumb,24,38,2,113,64.04,43.66,0.07,0.69,113,1374,Correct
incongruent_pinky_thumb,24,39,1,99,37.99,64.29,0.04,1.01,99,2306,Correct
incongruent_pinky_thumb,24,40,1,99,12.34,31.92,0.01,0.5,109,1265,Incorrect
incongruent_pinky_thumb,24,41,2,113,73.48,45.27,0.08,0.71,113,1433,Correct
incongruent_pinky_thumb,24,42,2,113,83.29,60.13,0.09,0.94,112,1035,Incorrect
incongruent_pinky_thumb,24,43,1,99,44.8,52.04,0.05,0.82,109,2288,Incorrect
incongruent_pinky_thumb,24,44,1,109,53.26,37.49,0.06,0.59,99,907,Incorrect
incongruent_pinky_thumb,24,45,2,112,13.74,31.65,0.02,0.5,112,758,Correct
incongruent_pinky_thumb,24,46,1,109,68.36,43.64,0.08,0.69,109,3635,Correct
incongruent_pinky_thumb,24,47,2,112,34.0,67.23,0.04,1.06,113,905,Incorrect
incongruent_pinky_thumb,24,48,1,109,86.17,60.25,0.1,0.95,109,694,Correct
incongruent_pinky_thumb,24,49,2,112,33.96,66.86,0.04,1.05,112,1773,Correct
incongruent_pinky_thumb,24,50,2,112,39.3,57.23,0.04,0.9,112,2844,Incorrect
incongruent_pinky_thumb,24,51,2,113,34.77,11.41,0.04,0.18,113,1547,Correct
incongruent_pinky_thumb,24,52,2,112,45.63,71.71,0.05,1.13,112,953,Correct
incongruent_pinky_thumb,24,53,2,113,72.63,63.11,0.08,0.99,113,626,Correct
incongruent_pinky_thumb,24,54,2,113,57.7,37.5,0.06,0.59,113,873,Correct
incongruent_pinky_thumb,24,55,2,112,45.22,52.59,0.05,0.83,113,614,Incorrect
incongruent_pinky_thumb,24,56,2,113,55.39,25.63,0.06,0.4,113,1349,Correct
incongruent_pinky_thumb,24,57,2,113,65.2,51.01,0.07,0.8,113,1107,Correct
incongruent_pinky_thumb,24,58,2,112,46.22,59.51,0.05,0.93,112,924,Correct
incongruent_pinky_thumb,24,59,1,99,14.31,41.68,0.02,0.65,109,941,Incorrect
incongruent_pinky_thumb,24,60,1,99,43.72,71.53,0.05,1.12,99,687,Correct
incongruent_pinky_thumb,24,61,2,112,32.03,59.19,0.04,0.93,112,2497,Correct
incongruent_pinky_thumb,24,62,1,109,71.21,49.05,0.08,0.77,109,579,Correct
incongruent_pinky_thumb,24,63,2,112,32.87,63.37,0.04,1.0,112,681,Correct
incongruent_pinky_thumb,24,64,1,99,39.69,48.67,0.04,0.76,99,2486,Correct
incongruent_pinky_thumb,24,65,2,113,82.79,60.51,0.09,0.95,113,962,Correct
incongruent_pinky_thumb,24,66,2,113,81.35,55.08,0.09,0.87,113,763,Correct
incongruent_pinky_thumb,24,67,2,112,16.67,32.27,0.02,0.51,112,1159,Correct
incongruent_pinky_thumb,24,68,2,113,80.56,50.96,0.09,0.8,113,659,Correct
incongruent_pinky_thumb,24,69,1,109,42.04,17.9,0.05,0.28,99,647,Incorrect
incongruent_pinky_thumb,24,70,1,99,65.26,79.02,0.07,1.24,109,659,Incorrect
incongruent_pinky_thumb,24,71,2,112,54.69,73.99,0.06,1.16,113,3217,Incorrect
incongruent_pinky_thumb,24,72,2,113,80.78,50.99,0.09,0.8,113,813,Correct
incongruent_pinky_thumb,24,73,1,109,56.49,45.46,0.06,0.71,109,909,Correct
incongruent_pinky_thumb,24,74,1,109,33.5,20.95,0.04,0.33,99,781,Incorrect
incongruent_pinky_thumb,24,75,1,109,47.56,40.09,0.05,0.63,109,524,Correct
incongruent_pinky_thumb,24,76,2,113,67.06,50.62,0.08,0.8,113,1361,Correct
incongruent_pinky_thumb,24,77,1,99,38.14,53.59,0.04,0.84,109,2390,Incorrect
incongruent_pinky_thumb,24,78,1,99,53.66,68.69,0.06,1.08,99,536,Correct
incongruent_pinky_thumb,24,79,2,113,37.13,24.43,0.04,0.38,112,1464,Incorrect
incongruent_pinky_thumb,24,80,2,113,80.62,60.54,0.09,0.95,113,828,Correct
incongruent_pinky_thumb,24,81,1,109,42.55,29.47,0.05,0.46,109,2152,Correct
incongruent_pinky_thumb,24,82,1,109,78.82,55.01,0.09,0.86,99,811,Incorrect
incongruent_pinky_thumb,24,83,1,99,54.94,77.3,0.06,1.21,99,997,Correct
incongruent_pinky_thumb,24,84,2,112,39.99,55.37,0.04,0.87,112,1374,Correct
incongruent_pinky_thumb,24,85,2,113,61.16,47.14,0.07,0.74,112,1132,Incorrect
incongruent_pinky_thumb,24,86,2,112,31.15,54.23,0.03,0.85,112,606,Correct
incongruent_pinky_thumb,24,87,2,113,63.48,48.89,0.07,0.77,113,889,Correct
incongruent_pinky_thumb,24,88,1,99,31.61,46.59,0.04,0.73,109,1303,Incorrect
incongruent_pinky_thumb,24,89,2,113,39.92,26.99,0.04,0.42,112,605,Incorrect
incongruent_pinky_thumb,24,90,2,113,46.34,33.07,0.05,0.52,113,641,Correct
incongruent_pinky_thumb,24,91,1,109,70.77,50.29,0.08,0.79,109,1085,Correct
incongruent_pinky_thumb,24,92,2,113,75.17,49.4,0.08,0.78,113,1251,Correct
incongruent_pinky_thumb,24,93,2,113,78.78,47.5,0.09,0.75,113,705,Correct
incongruent_pinky_thumb,24,94,1,99,13.17,40.32,0.01,0.63,99,914,Correct
incongruent_pinky_thumb,24,95,1,99,45.25,68.62,0.05,1.08,109,832,Incorrect
incongruent_pinky_thumb,24,96,2,112,17.83,39.34,0.02,0.62,112,1342,Correct
incongruent_pinky_thumb,24,97,1,109,56.48,36.88,0.06,0.58,109,839,Correct
incongruent_pinky_thumb,24,98,1,109,51.98,34.11,0.06,0.54,109,706,Correct
incongruent_pinky_thumb,24,99,1,99,11.7,30.7,0.01,0.48,99,1201,Correct
incongruent_pinky_thumb,24,100,1,109,49.91,42.81,0.06,0.67,109,796,Correct
incongruent_pinky_thumb,24,101,1,109,61.3,31.8,0.07,0.5,109,805,Correct
incongruent_pinky_thumb,24,102,1,99,44.66,73.46,0.05,1.15,109,922,Incorrect
incongruent_pinky_thumb,24,103,2,113,73.75,49.08,0.08,0.77,113,503,Correct
incongruent_pinky_thumb,24,104,2,112,16.19,41.65,0.02,0.65,112,583,Correct
incongruent_pinky_thumb,24,105,2,113,62.81,50.15,0.07,0.79,113,415,Correct
incongruent_pinky_thumb,24,106,1,109,77.92,64.75,0.09,1.02,99,622,Incorrect
incongruent_pinky_thumb,24,107,2,112,44.68,72.24,0.05,1.13,113,749,Incorrect
incongruent_pinky_thumb,24,108,1,109,59.89,37.66,0.07,0.59,109,781,Correct
incongruent_pinky_thumb,24,109,2,113,72.05,42.43,0.08,0.67,113,641,Correct
incongruent_pinky_thumb,24,110,1,99,21.7,48.55,0.02,0.76,99,756,Correct
incongruent_pinky_thumb,24,111,1,109,87.49,63.86,0.1,1.0,109,3137,Incorrect
incongruent_pinky_thumb,24,112,1,109,74.98,47.28,0.08,0.74,109,571,Correct
incongruent_pinky_thumb,24,113,1,109,42.85,31.03,0.05,0.49,109,1606,Incorrect
incongruent_pinky_thumb,24,114,2,113,52.86,32.95,0.06,0.52,113,1303,Correct
incongruent_pinky_thumb,24,115,1,99,44.84,57.28,0.05,0.9,99,983,Correct
incongruent_pinky_thumb,24,116,1,99,46.23,78.02,0.05,1.23,99,650,Correct
incongruent_pinky_thumb,24,117,2,112,19.76,38.36,0.02,0.6,112,885,Correct
incongruent_pinky_thumb,24,118,2,113,34.21,18.25,0.04,0.29,113,955,Incorrect
incongruent_pinky_thumb,24,119,1,99,52.73,72.92,0.06,1.15,99,2007,Correct
incongruent_pinky_thumb,24,120,1,99,28.53,42.69,0.03,0.67,99,2963,Incorrect
incongruent_pinky_thumb,24,121,2,112,64.89,80.16,0.07,1.26,113,611,Incorrect
incongruent_pinky_thumb,24,122,1,99,48.19,69.94,0.05,1.1,99,983,Correct
incongruent_pinky_thumb,24,123,1,109,44.01,27.08,0.05,0.43,109,886,Correct
incongruent_pinky_thumb,24,124,2,113,43.61,14.77,0.05,0.23,112,6495,Incorrect
incongruent_pinky_thumb,24,125,1,99,34.07,61.92,0.04,0.97,99,1398,Correct
incongruent_pinky_thumb,24,126,1,99,39.17,46.96,0.04,0.74,99,609,Correct
incongruent_pinky_thumb,24,127,2,113,45.96,30.49,0.05,0.48,113,2097,Incorrect
incongruent_pinky_thumb,24,128,1,109,74.27,55.08,0.08,0.87,109,2596,Correct
incongruent_pinky_thumb,24,129,2,112,23.19,35.12,0.03,0.55,112,579,Correct
incongruent_pinky_thumb,24,130,1,99,39.81,47.16,0.04,0.74,99,3035,Correct
incongruent_pinky_thumb,24,131,2,113,41.1,28.38,0.05,0.45,113,942,Correct
incongruent_pinky_thumb,24,132,1,109,69.97,48.79,0.08,0.77,109,4153,Correct
incongruent_pinky_thumb,24,133,2,113,61.6,46.83,0.07,0.74,113,3348,Correct
incongruent_pinky_thumb,24,134,2,112,53.62,79.18,0.06,1.24,112,2541,Correct
incongruent_pinky_thumb,24,135,2,113,30.81,14.98,0.03,0.24,113,1415,Correct
incongruent_pinky_thumb,24,136,1,109,80.96,49.54,0.09,0.78,109,1416,Correct
incongruent_pinky_thumb,24,137,2,113,45.75,18.25,0.05,0.29,113,2278,Incorrect
incongruent_pinky_thumb,24,138,2,112,40.41,61.9,0.05,0.97,113,1009,Incorrect
incongruent_pinky_thumb,24,139,1,109,84.46,57.33,0.09,0.9,109,3372,Correct
incongruent_pinky_thumb,24,140,1,109,40.47,25.07,0.05,0.39,99,1714,Incorrect
incongruent_pinky_thumb,24,141,1,109,47.08,33.02,0.05,0.52,99,809,Incorrect
incongruent_pinky_thumb,24,142,2,112,38.48,57.99,0.04,0.91,112,2004,Correct
incongruent_pinky_thumb,24,143,2,112,12.5,38.87,0.01,0.61,112,2956,Correct
incongruent_pinky_thumb,24,144,2,112,29.69,57.52,0.03,0.9,112,804,Correct
incongruent_pinky_thumb,24,145,1,99,39.16,71.0,0.04,1.12,99,862,Correct
incongruent_pinky_thumb,24,146,2,113,47.68,32.13,0.05,0.5,113,1203,Incorrect
incongruent_pinky_thumb,24,147,2,113,73.03,60.58,0.08,0.95,113,688,Correct
incongruent_pinky_thumb,24,148,1,109,74.18,50.59,0.08,0.79,109,1230,Correct
incongruent_pinky_thumb,24,149,1,99,54.6,71.7,0.06,1.13,99,1185,Incorrect
incongruent_pinky_thumb,24,150,2,112,41.47,69.4,0.05,1.09,112,680,Correct
incongruent_pinky_thumb,24,151,1,109,54.54,42.54,0.06,0.67,109,2658,Correct
incongruent_pinky_thumb,24,152,1,99,22.25,44.18,0.02,0.69,99,1189,Correct
incongruent_pinky_thumb,24,153,1,99,66.2,79.0,0.07,1.24,99,2414,Incorrect
incongruent_pinky_thumb,24,154,2,112,64.38,74.34,0.07,1.17,112,1142,Incorrect
incongruent_pinky_thumb,24,155,2,113,86.22,57.43,0.1,0.9,113,819,Correct
incongruent_pinky_thumb,24,156,1,109,78.74,51.54,0.09,0.81,109,1809,Correct
incongruent_pinky_thumb,24,157,1,99,31.14,56.57,0.03,0.89,99,1405,Correct
incongruent_pinky_thumb,24,158,1,109,58.64,36.27,0.07,0.57,109,3313,Correct
incongruent_pinky_thumb,24,159,2,112,42.58,51.84,0.05,0.81,112,2091,Correct
incongruent_pinky_thumb,24,160,1,109,67.57,46.78,0.08,0.73,109,3102,Incorrect
incongruent_pinky_thumb,24,161,1,109,37.77,13.82,0.04,0.22,109,673,Incorrect
incongruent_pinky_thumb,24,162,1,99,35.73,43.81,0.04,0.69,99,1657,Correct
incongruent_pinky_thumb,24,163,1,109,60.46,43.73,0.07,0.69,109,794,Correct
incongruent_pinky_thumb,24,164,2,113,45.86,33.14,0.05,0.52,112,2376,Incorrect
incongruent_pinky_thumb,24,165,1,99,17.44,33.66,0.02,0.53,99,1767,Correct
incongruent_pinky_thumb,24,166,2,112,33.49,53.15,0.04,0.83,112,754,Correct
incongruent_pinky_thumb,24,167,2,112,60.43,73.45,0.07,1.15,113,887,Incorrect
incongruent_pinky_thumb,24,168,2,112,19.63,46.73,0.02,0.73,112,971,Correct
incongruent_pinky_thumb,24,169,1,109,68.21,56.24,0.08,0.88,109,532,Correct
incongruent_pinky_thumb,24,170,2,113,57.88,34.93,0.06,0.55,113,1110,Correct
incongruent_pinky_thumb,24,171,2,112,18.9,34.26,0.02,0.54,112,798,Correct
incongruent_pinky_thumb,24,172,2,112,59.06,82.32,0.07,1.29,113,618,Incorrect
incongruent_pinky_thumb,24,173,1,109,63.89,48.36,0.07,0.76,109,740,Correct
incongruent_pinky_thumb,24,174,2,112,53.85,70.01,0.06,1.1,112,752,Correct
incongruent_pinky_thumb,24,175,2,113,51.27,40.73,0.06,0.64,113,1750,Incorrect
incongruent_pinky_thumb,24,176,2,112,31.32,63.96,0.04,1.0,112,1753,Incorrect
incongruent_pinky_thumb,24,177,2,113,65.76,39.28,0.07,0.62,113,3268,Correct
incongruent_pinky_thumb,24,178,2,113,52.86,21.43,0.06,0.34,113,740,Correct
incongruent_pinky_thumb,24,179,2,113,30.96,11.58,0.03,0.18,113,1004,Incorrect
incongruent_pinky_thumb,24,180,1,109,55.01,36.06,0.06,0.57,109,1600,Correct
incongruent_pinky_thumb,24,181,1,99,48.17,75.47,0.05,1.19,99,686,Correct
incongruent_pinky_thumb,24,182,1,99,34.11,54.18,0.04,0.85,99,447,Correct
incongruent_pinky_thumb,24,183,2,112,58.1,77.74,0.07,1.22,112,1960,Incorrect
incongruent_pinky_thumb,24,184,1,109,65.8,41.77,0.07,0.66,109,1062,Correct
incongruent_pinky_thumb,24,185,2,113,67.6,49.49,0.08,0.78,113,1576,Correct
incongruent_pinky_thumb,24,186,2,113,85.09,60.64,0.1,0.95,113,964,Incorrect
incongruent_pinky_thumb,24,187,2,112,17.88,43.63,0.02,0.69,112,952,Correct
incongruent_pinky_thumb,24,188,2,113,44.72,33.6,0.05,0.53,113,1107,Incorrect
incongruent_pinky_thumb,24,189,2,113,56.63,26.84,0.06,0.42,113,1789,Correct
incongruent_pinky_thumb,24,190,1,99,57.51,85.02,0.06,1.34,99,979,Correct
incongruent_pinky_thumb,24,191,1,109,36.18,15.5,0.04,0.24,109,728,Correct
incongruent_pinky_thumb,24,192,2,113,58.4,28.01,0.07,0.44,113,1091,Correct
incongruent_pinky_thumb,24,193,2,112,26.76,55.33,0.03,0.87,112,729,Correct
incongruent_pinky_thumb,24,194,1,109,60.16,51.09,0.07,0.8,99,1035,Incorrect
incongruent_pinky_thumb,24,195,1,99,47.77,77.17,0.05,1.21,99,560,Correct
incongruent_pinky_thumb,24,196,2,112,53.22,71.53,0.06,1.12,112,907,Correct
incongruent_pinky_thumb,24,197,1,99,61.78,73.45,0.07,1.15,99,621,Correct
incongruent_pinky_thumb,24,198,1,109,79.46,48.46,0.09,0.76,109,2189,Correct
incongruent_pinky_thumb,24,199,1,109,80.94,67.74,0.09,1.06,109,1136,Correct
incongruent_pinky_thumb,24,200,2,113,42.32,34.54,0.05,0.54,113,2274,Incorrect
incongruent_pinky_thumb,24,201,2,113,83.26,55.4,0.09,0.87,113,702,Correct
incongruent_pinky_thumb,24,202,1,109,77.5,45.25,0.09,0.71,109,749,Correct
incongruent_pinky_thumb,24,203,2,112,50.54,71.61,0.06,1.12,112,1740,Correct
incongruent_pinky_thumb,24,204,1,99,39.23,57.31,0.04,0.9,99,1004,Correct
incongruent_pinky_thumb,24,205,2,112,64.77,77.51,0.07,1.22,112,805,Correct
incongruent_pinky_thumb,24,206,2,113,62.1,49.51,0.07,0.78,113,915,Correct
incongruent_pinky_thumb,24,207,1,109,87.74,65.97,0.1,1.04,109,1469,Correct
incongruent_pinky_thumb,24,208,1,109,51.86,41.77,0.06,0.66,99,804,Incorrect
incongruent_pinky_thumb,24,209,2,112,54.12,76.28,0.06,1.2,112,1367,Correct
incongruent_pinky_thumb,24,210,1,109,55.96,30.2,0.06,0.47,109,505,Correct
incongruent_pinky_thumb,24,211,1,109,76.05,49.74,0.09,0.78,109,1626,Correct
incongruent_pinky_thumb,24,212,2,112,43.24,53.03,0.05,0.83,112,4355,Correct
incongruent_pinky_thumb,24,213,1,99,28.93,42.86,0.03,0.67,99,2807,Incorrect
incongruent_pinky_thumb,24,214,2,113,48.2,36.62,0.05,0.58,112,2145,Incorrect
incongruent_pinky_thumb,24,215,1,109,76.0,54.46,0.09,0.86,109,861,Correct
incongruent_pinky_thumb,24,216,1,109,73.02,52.27,0.08,0.82,109,5021,Correct
incongruent_pinky_thumb,24,217,1,99,37.08,47.43,0.04,0.74,99,1239,Correct
incongruent_pinky_thumb,24,218,1,99,29.87,44.4,0.03,0.7,99,950,Correct
incongruent_pinky_thumb,24,219,2,112,47.41,65.69,0.05,1.03,112,2190,Correct
incongruent_pinky_thumb,24,220,2,112,29.73,46.48,0.03,0.73,112,495,Correct
incongruent_pinky_thumb,24,221,1,109,49.5,37.03,0.06,0.58,109,10631,Correct
incongruent_pinky_thumb,24,222,1,99,59.55,79.89,0.07,1.25,99,1572,Correct
incongruent_pinky_thumb,24,223,2,112,25.98,37.14,0.03,0.58,112,651,Correct
incongruent_pinky_thumb,24,224,1,99,27.42,38.88,0.03,0.61,99,1024,Correct
incongruent_pinky_thumb,24,225,1,109,67.04,57.0,0.08,0.9,109,1778,Correct
incongruent_pinky_thumb,24,226,1,99,39.67,48.23,0.04,0.76,99,753,Correct
incongruent_pinky_thumb,24,227,2,112,40.34,60.57,0.05,0.95,112,1664,Incorrect
incongruent_pinky_thumb,24,228,1,99,16.33,36.15,0.02,0.57,99,948,Correct
incongruent_pinky_thumb,24,229,1,99,46.43,56.32,0.05,0.88,99,2987,Correct
incongruent_pinky_thumb,24,230,2,113,38.71,25.77,0.04,0.4,113,2892,Correct
incongruent_pinky_thumb,24,231,2,113,35.72,15.71,0.04,0.25,113,744,Correct
incongruent_pinky_thumb,24,232,2,113,83.62,62.36,0.09,0.98,113,2326,Correct
incongruent_pinky_thumb,24,233,2,113,52.73,23.89,0.06,0.38,113,1845,Correct
incongruent_pinky_thumb,24,234,1,99,24.17,34.75,0.03,0.55,99,718,Correct
incongruent_pinky_thumb,24,235,1,99,22.22,37.05,0.02,0.58,99,794,Correct
incongruent_pinky_thumb,24,236,1,109,61.87,38.09,0.07,0.6,109,2152,Incorrect
incongruent_pinky_thumb,24,237,2,113,34.86,13.27,0.04,0.21,113,1406,Incorrect
incongruent_pinky_thumb,24,238,1,109,70.19,58.3,0.08,0.92,109,2205,Incorrect
incongruent_pinky_thumb,24,239,1,99,57.35,65.8,0.06,1.03,99,805,Correct
incongruent_pinky_thumb,24,240,1,109,81.33,55.07,0.09,0.86,109,1786,Correct
incongruent_pinky_thumb,24,241,1,99,51.98,71.0,0.06,1.12,99,1491,Correct
incongruent_pinky_thumb,24,242,2,113,75.41,60.0,0.08,0.94,113,1439,Correct
incongruent_pinky_thumb,24,243,2,113,55.16,43.04,0.06,0.68,113,2362,Correct
incongruent_pinky_thumb,24,244,1,109,50.26,42.81,0.06,0.67,109,907,Incorrect
incongruent_pinky_thumb,24,245,1,109,36.68,14.29,0.04,0.22,109,1428,Correct
incongruent_pinky_thumb,24,246,2,112,41.3,67.02,0.05,1.05,112,1536,Correct
incongruent_pinky_thumb,24,247,1,99,33.99,55.08,0.04,0.87,99,2829,Correct
incongruent_pinky_thumb,24,248,1,99,35.35,46.38,0.04,0.73,109,4146,Incorrect
incongruent_pinky_thumb,24,249,2,113,74.55,49.98,0.08,0.79,113,788,Correct
incongruent_pinky_thumb,24,250,2,113,47.78,39.82,0.05,0.63,113,1314,Correct
incongruent_pinky_thumb,24,251,1,99,42.77,67.38,0.05,1.06,99,1774,Correct
incongruent_pinky_thumb,24,252,2,112,38.65,56.64,0.04,0.89,112,5917,Correct
incongruent_pinky_thumb,24,253,2,112,28.34,53.15,0.03,0.83,112,2236,Correct
incongruent_pinky_thumb,24,254,2,113,50.18,22.66,0.06,0.36,113,2723,Correct
incongruent_pinky_thumb,24,255,2,112,42.17,63.73,0.05,1.0,112,2634,Correct
incongruent_pinky_thumb,24,256,2,113,37.47,19.12,0.04,0.3,113,1150,Correct
incongruent_pinky_thumb,24,257,1,99,18.23,42.04,0.02,0.66,99,1366,Correct
incongruent_pinky_thumb,24,258,2,113,61.67,49.19,0.07,0.77,113,2725,Correct
incongruent_pinky_thumb,24,259,2,112,49.88,81.04,0.06,1.27,112,3701,Correct
incongruent_pinky_thumb,24,260,2,113,33.58,12.86,0.04,0.2,113,1383,Correct
incongruent_pinky_thumb,24,261,1,109,72.43,50.61,0.08,0.79,109,2443,Correct
incongruent_pinky_thumb,24,262,2,112,63.93,81.68,0.07,1.28,112,2782,Correct
incongruent_pinky_thumb,24,263,1,99,23.25,34.1,0.03,0.54,99,900,Correct
incongruent_pinky_thumb,24,264,2,112,29.22,45.46,0.03,0.71,112,1085,Correct
incongruent_pinky_thumb,24,265,1,99,62.72,85.39,0.07,1.34,99,2188,Correct
incongruent_pinky_thumb,24,266,1,109,71.14,42.67,0.08,0.67,109,4428,Correct
incongruent_pinky_thumb,24,267,1,99,12.18,36.71,0.01,0.58,99,793,Correct
incongruent_pinky_thumb,24,268,2,113,63.73,36.32,0.07,0.57,113,10642,Correct
incongruent_pinky_thumb,24,269,1,99,27.1,55.04,0.03,0.86,99,842,Correct
incongruent_pinky_thumb,24,270,1,109,79.88,66.69,0.09,1.05,109,4332,Incorrect
incongruent_pinky_thumb,24,271,1,99,25.42,45.67,0.03,0.72,99,611,Correct
incongruent_pinky_thumb,24,272,1,99,19.91,45.43,0.02,0.71,99,789,Correct
incongruent_pinky_thumb,24,273,1,109,52.96,41.72,0.06,0.66,109,1991,Correct
incongruent_pinky_thumb,24,274,1,99,45.6,67.72,0.05,1.06,99,679,Correct
incongruent_pinky_thumb,24,275,1,109,73.87,53.81,0.08,0.85,109,1207,Incorrect
incongruent_pinky_thumb,24,276,2,113,52.28,35.36,0.06,0.56,113,1522,Correct
incongruent_pinky_thumb,24,277,1,109,35.12,24.74,0.04,0.39,109,758,Incorrect
incongruent_pinky_thumb,24,278,2,113,59.71,32.88,0.07,0.52,113,849,Correct
incongruent_pinky_thumb,24,279,1,109,75.36,64.49,0.08,1.01,109,1469,Incorrect
incongruent_pinky_thumb,24,280,1,99,13.29,38.5,0.01,0.6,99,682,Correct
incongruent_pinky_thumb,24,281,1,109,37.94,15.13,0.04,0.24,109,1438,Correct
incongruent_pinky_thumb,24,282,1,109,76.36,53.95,0.09,0.85,109,1067,Correct
incongruent_pinky_thumb,24,283,2,113,80.03,64.77,0.09,1.02,113,783,Correct
incongruent_pinky_thumb,24,284,2,112,40.64,68.71,0.05,1.08,112,772,Correct
incongruent_pinky_thumb,24,285,1,99,31.77,47.11,0.04,0.74,99,1237,Correct
incongruent_pinky_thumb,24,286,1,99,30.42,44.93,0.03,0.71,99,2267,Correct
incongruent_pinky_thumb,24,287,1,99,21.81,44.38,0.02,0.7,99,718,Correct
incongruent_pinky_thumb,24,288,2,112,44.64,73.55,0.05,1.16,112,1924,Correct
incongruent_pinky_thumb,24,289,2,113,84.9,59.79,0.09,0.94,113,766,Correct
incongruent_pinky_thumb,24,290,1,109,48.01,24.35,0.05,0.38,109,1145,Correct
incongruent_pinky_thumb,24,291,1,109,37.37,24.9,0.04,0.39,109,4066,Correct
incongruent_pinky_thumb,24,292,2,113,59.19,47.59,0.07,0.75,113,15052,Correct
incongruent_pinky_thumb,24,293,2,113,74.59,49.01,0.08,0.77,113,10317,Correct
incongruent_pinky_thumb,24,294,2,112,64.74,89.56,0.07,1.41,112,1075,Correct
incongruent_pinky_thumb,24,295,1,109,57.27,47.59,0.06,0.75,109,6038,Correct
incongruent_pinky_thumb,24,296,1,99,18.6,47.06,0.02,0.74,99,524,Correct
incongruent_pinky_thumb,24,297,2,113,73.88,52.92,0.08,0.83,113,806,Correct
incongruent_pinky_thumb,24,298,1,99,54.82,62.44,0.06,0.98,99,1208,Correct
incongruent_pinky_thumb,24,299,2,112,50.06,71.1,0.06,1.12,112,9470,Correct
incongruent_pinky_thumb,24,300,2,113,36.29,13.28,0.04,0.21,113,993,Correct
incongruent_pinky_thumb,24,301,1,99,15.08,43.08,0.02,0.68,99,827,Correct
incongruent_pinky_thumb,24,302,2,112,66.08,84.55,0.07,1.33,112,1885,Correct
incongruent_pinky_thumb,24,303,2,112,38.94,53.41,0.04,0.84,113,1948,Incorrect
incongruent_pinky_thumb,24,304,1,109,55.78,46.65,0.06,0.73,109,2348,Correct
incongruent_pinky_thumb,24,305,2,112,17.69,38.4,0.02,0.6,113,631,Incorrect
incongruent_pinky_thumb,24,306,2,112,49.5,80.13,0.06,1.26,112,1765,Correct
incongruent_pinky_thumb,24,307,2,112,22.03,49.39,0.02,0.78,112,743,Correct
incongruent_pinky_thumb,24,308,1,99,15.9,32.82,0.02,0.52,99,908,Correct
incongruent_pinky_thumb,24,309,2,112,62.66,77.43,0.07,1.22,112,2307,Correct
incongruent_pinky_thumb,24,310,2,112,30.14,47.78,0.03,0.75,112,5320,Correct
incongruent_pinky_thumb,24,311,2,112,36.2,63.73,0.04,1.0,112,2881,Correct
incongruent_pinky_thumb,24,312,1,109,67.59,42.85,0.08,0.67,109,914,Correct
incongruent_pinky_thumb,24,313,1,99,51.96,72.13,0.06,1.13,99,1129,Correct
incongruent_pinky_thumb,24,314,2,113,84.04,63.72,0.09,1.0,113,1029,Correct
incongruent_pinky_thumb,24,315,2,113,74.09,52.71,0.08,0.83,113,607,Correct
incongruent_pinky_thumb,24,316,1,99,37.49,60.89,0.04,0.96,99,3446,Correct
incongruent_pinky_thumb,24,317,1,109,51.54,20.63,0.06,0.32,109,854,Correct
incongruent_pinky_thumb,24,318,2,112,64.48,80.95,0.07,1.27,112,1056,Correct
incongruent_pinky_thumb,24,319,1,99,20.93,38.26,0.02,0.6,99,1348,Correct
incongruent_pinky_thumb,24,320,1,109,56.91,45.73,0.06,0.72,109,5316,Correct
incongruent_pinky_thumb,24,321,2,113,66.89,40.19,0.07,0.63,113,869,Correct
incongruent_pinky_thumb,24,322,1,99,40.02,59.33,0.04,0.93,99,928,Correct
incongruent_pinky_thumb,24,323,2,112,57.75,68.06,0.06,1.07,112,6367,Correct
incongruent_pinky_thumb,24,324,2,112,18.31,45.34,0.02,0.71,112,1870,Correct
incongruent_pinky_thumb,24,325,1,99,43.79,64.96,0.05,1.02,99,1175,Correct
incongruent_pinky_thumb,24,326,2,112,32.15,59.98,0.04,0.94,112,2984,Correct
incongruent_pinky_thumb,24,327,1,109,36.61,13.8,0.04,0.22,109,1433,Correct
incongruent_pinky_thumb,24,328,1,99,49.92,57.6,0.06,0.9,99,4454,Correct
incongruent_pinky_thumb,24,329,2,112,40.38,68.3,0.05,1.07,112,1288,Correct
incongruent_pinky_thumb,24,330,1,99,26.75,53.1,0.03,0.83,99,852,Correct
incongruent_pinky_thumb,24,331,2,112,31.31,50.78,0.04,0.8,112,1750,Correct
incongruent_pinky_thumb,24,332,2,112,34.06,57.44,0.04,0.9,112,7940,Correct
incongruent_pinky_thumb,24,333,1,99,23.22,40.04,0.03,0.63,99,806,Correct
incongruent_pinky_thumb,24,334,2,112,47.58,58.03,0.05,0.91,112,1753,Correct
incongruent_pinky_thumb,24,335,1,99,45.94,61.47,0.05,0.97,99,6244,Correct
incongruent_pinky_thumb,24,336,1,99,38.41,66.02,0.04,1.04,99,8709,Correct
incongruent_pinky_thumb,24,337,2,113,54.4,29.66,0.06,0.47,113,10349,Correct
incongruent_pinky_thumb,24,338,1,99,59.57,85.98,0.07,1.35,99,14717,Correct
incongruent_pinky_thumb,24,339,1,109,42.06,28.18,0.05,0.44,109,1396,Correct
incongruent_pinky_thumb,24,340,1,109,75.56,62.53,0.08,0.98,109,1718,Correct
incongruent_pinky_thumb,24,341,2,112,62.53,84.74,0.07,1.33,112,1552,Correct
incongruent_pinky_thumb,24,342,1,109,53.32,23.14,0.06,0.36,109,1257,Correct
incongruent_pinky_thumb,24,343,1,99,46.44,69.23,0.05,1.09,99,4034,Correct
incongruent_pinky_thumb,24,344,1,99,51.2,72.08,0.06,1.13,99,1452,Correct
incongruent_pinky_thumb,24,345,1,99,19.21,49.17,0.02,0.77,99,981,Correct
incongruent_pinky_thumb,24,346,2,113,37.14,20.01,0.04,0.31,113,1452,Correct
incongruent_pinky_thumb,24,347,1,109,52.98,45.91,0.06,0.72,99,2734,Incorrect
incongruent_pinky_thumb,24,348,1,109,68.32,54.56,0.08,0.86,109,850,Correct
incongruent_pinky_thumb,24,349,1,99,16.94,37.88,0.02,0.6,99,645,Correct
incongruent_pinky_thumb,24,350,1,109,85.04,59.79,0.1,0.94,109,2143,Correct
incongruent_pinky_thumb,24,351,2,113,55.99,39.3,0.06,0.62,113,10002,Correct
incongruent_pinky_thumb,24,352,2,113,56.12,34.08,0.06,0.54,113,748,Correct
incongruent_pinky_thumb,24,353,1,99,31.6,55.82,0.04,0.88,99,2501,Correct
incongruent_pinky_thumb,24,354,2,112,52.81,72.16,0.06,1.13,112,1292,Incorrect
incongruent_pinky_thumb,24,355,2,112,35.24,53.36,0.04,0.84,112,1199,Correct
incongruent_pinky_thumb,24,356,2,113,47.87,33.96,0.05,0.53,113,3627,Correct
incongruent_pinky_thumb,24,357,2,113,58.88,32.56,0.07,0.51,113,940,Correct
incongruent_pinky_thumb,24,358,1,109,60.33,32.86,0.07,0.52,109,2032,Correct
incongruent_pinky_thumb,24,359,2,112,68.09,86.01,0.08,1.35,112,1176,Correct
incongruent_pinky_thumb,24,360,1,99,64.53,88.08,0.07,1.38,99,1333,Correct
incongruent_pinky_thumb,24,361,2,112,33.22,53.44,0.04,0.84,112,7004,Correct
incongruent_pinky_thumb,24,362,2,113,73.43,60.81,0.08,0.96,113,6765,Correct
incongruent_pinky_thumb,24,363,1,99,19.66,35.11,0.02,0.55,99,749,Correct
incongruent_pinky_thumb,24,364,2,113,36.88,13.49,0.04,0.21,113,3968,Correct
incongruent_pinky_thumb,24,365,2,113,33.48,13.22,0.04,0.21,113,971,Correct
incongruent_pinky_thumb,24,366,2,113,47.06,38.95,0.05,0.61,113,4840,Correct
incongruent_pinky_thumb,24,367,1,99,53.03,72.13,0.06,1.13,99,1181,Correct
incongruent_pinky_thumb,24,368,1,99,37.43,67.08,0.04,1.05,99,868,Correct
incongruent_pinky_thumb,24,369,2,112,24.28,48.62,0.03,0.76,112,7359,Correct
incongruent_pinky_thumb,24,370,1,99,22.96,46.57,0.03,0.73,99,981,Correct
incongruent_pinky_thumb,24,371,1,109,69.0,42.89,0.08,0.67,109,1266,Correct
incongruent_pinky_thumb,24,372,2,112,48.53,64.51,0.05,1.01,113,1490,Incorrect
incongruent_pinky_thumb,24,373,1,109,74.06,50.34,0.08,0.79,109,1077,Correct
incongruent_pinky_thumb,24,374,2,113,57.87,32.77,0.06,0.51,113,1803,Correct
incongruent_pinky_thumb,24,375,2,113,62.64,43.8,0.07,0.69,113,740,Correct
incongruent_pinky_thumb,24,376,2,113,52.64,43.33,0.06,0.68,113,3796,Correct
incongruent_pinky_thumb,24,377,2,113,65.52,57.73,0.07,0.91,113,3740,Correct
incongruent_pinky_thumb,24,378,2,113,31.99,13.12,0.04,0.21,113,1060,Correct
incongruent_pinky_thumb,24,379,2,113,46.24,26.36,0.05,0.41,113,2620,Correct
incongruent_pinky_thumb,24,380,1,109,42.8,29.11,0.05,0.46,109,1107,Correct
incongruent_pinky_thumb,24,381,2,112,27.21,48.1,0.03,0.76,112,3598,Correct
incongruent_pinky_thumb,24,382,1,99,57.18,72.84,0.06,1.14,99,1261,Correct
incongruent_pinky_thumb,24,383,2,112,51.64,72.07,0.06,1.13,112,1712,Correct
incongruent_pinky_thumb,24,384,2,112,19.47,38.4,0.02,0.6,113,1265,Incorrect
incongruent_pinky_thumb,24,385,2,113,87.06,64.82,0.1,1.02,113,2401,Correct
incongruent_pinky_thumb,24,386,2,112,19.07,33.67,0.02,0.53,112,627,Correct
incongruent_pinky_thumb,24,387,1,99,41.98,67.22,0.05,1.06,99,1957,Correct
incongruent_pinky_thumb,24,388,1,109,80.76,60.14,0.09,0.94,109,1921,Correct
incongruent_pinky_thumb,24,389,1,109,30.14,14.27,0.03,0.22,109,1703,Correct
incongruent_pinky_thumb,24,390,2,113,39.64,17.28,0.04,0.27,113,4534,Correct
incongruent_pinky_thumb,24,391,2,113,42.1,22.71,0.05,0.36,113,714,Correct
incongruent_pinky_thumb,24,392,2,112,27.53,54.81,0.03,0.86,112,635,Correct
incongruent_pinky_thumb,24,393,2,112,59.66,75.2,0.07,1.18,112,1826,Correct
incongruent_pinky_thumb,24,394,1,109,75.29,46.26,0.08,0.73,109,6631,Correct
incongruent_pinky_thumb,24,395,1,99,36.05,55.01,0.04,0.86,99,2643,Incorrect
incongruent_pinky_thumb,24,396,2,112,58.99,70.23,0.07,1.1,112,1114,Correct
incongruent_pinky_thumb,24,397,2,112,64.6,82.74,0.07,1.3,112,902,Correct
incongruent_pinky_thumb,24,398,1,109,67.28,50.84,0.08,0.8,109,3327,Correct
