condition,subject,trial,sub_task,cat,x,y,xt,yt,resp,rt,fb
incongruent_pointer_middle,38,0,1,106,61.11,28.33,0.07,0.44,106,4640,Correct
incongruent_pointer_middle,38,1,1,102,38.29,56.1,0.04,0.88,106,2000,Incorrect
incongruent_pointer_middle,38,2,2,107,11.55,35.51,0.01,0.56,107,2600,Correct
incongruent_pointer_middle,38,3,2,107,56.8,77.27,0.06,1.21,100,821,Incorrect
incongruent_pointer_middle,38,4,1,106,49.3,23.35,0.06,0.37,106,2580,Correct
incongruent_pointer_middle,38,5,1,102,43.84,68.13,0.05,1.07,106,822,Incorrect
incongruent_pointer_middle,38,6,1,106,76.82,63.96,0.09,1.0,106,4526,Correct
incongruent_pointer_middle,38,7,2,100,45.05,34.11,0.05,0.54,100,2243,Correct
incongruent_pointer_middle,38,8,1,106,36.06,15.24,0.04,0.24,102,1616,Incorrect
incongruent_pointer_middle,38,9,1,106,37.58,22.78,0.04,0.36,106,2295,Correct
incongruent_pointer_middle,38,10,2,107,28.66,57.44,0.03,0.9,100,4532,Incorrect
incongruent_pointer_middle,38,11,2,100,55.06,43.41,0.06,0.68,100,1125,Correct
incongruent_pointer_middle,38,12,1,102,48.91,62.77,0.05,0.99,106,1569,Incorrect
incongruent_pointer_middle,38,13,2,107,29.12,53.28,0.03,0.84,100,2666,Incorrect
incongruent_pointer_middle,38,14,2,100,51.5,29.63,0.06,0.47,100,3560,Correct
incongruent_pointer_middle,38,15,2,100,69.37,57.99,0.08,0.91,100,2102,Correct
incongruent_pointer_middle,38,16,1,102,27.3,52.61,0.03,0.83,106,817,Incorrect
incongruent_pointer_middle,38,17,1,102,43.74,70.16,0.05,1.1,102,675,Correct
incongruent_pointer_middle,38,18,1,106,71.6,45.72,0.08,0.72,102,2631,Incorrect
incongruent_pointer_middle,38,19,1,102,52.93,80.28,0.06,1.26,106,975,Incorrect
incongruent_pointer_middle,38,20,1,106,71.16,58.12,0.08,0.91,102,1155,Incorrect
incongruent_pointer_middle,38,21,2,107,13.4,32.27,0.01,0.51,107,3844,Correct
incongruent_pointer_middle,38,22,1,102,55.42,71.65,0.06,1.13,106,3251,Incorrect
incongruent_pointer_middle,38,23,1,102,24.59,54.74,0.03,0.86,102,3842,Correct
incongruent_pointer_middle,38,24,1,106,46.32,30.55,0.05,0.48,106,2035,Correct
incongruent_pointer_middle,38,25,1,106,59.43,50.14,0.07,0.79,106,2544,Correct
incongruent_pointer_middle,38,26,2,100,75.38,47.57,0.08,0.75,107,1467,Incorrect
incongruent_pointer_middle,38,27,1,106,35.3,19.32,0.04,0.3,102,2243,Incorrect
incongruent_pointer_middle,38,28,2,100,62.08,36.97,0.07,0.58,100,2488,Correct
incongruent_pointer_middle,38,29,2,100,87.97,68.03,0.1,1.07,107,2524,Incorrect
incongruent_pointer_middle,38,30,2,107,35.9,59.01,0.04,0.93,100,2645,Incorrect
incongruent_pointer_middle,38,31,2,107,34.02,46.27,0.04,0.73,107,2772,Correct
incongruent_pointer_middle,38,32,1,106,68.06,58.3,0.08,0.92,106,7474,Correct
incongruent_pointer_middle,38,33,2,107,47.47,75.13,0.05,1.18,100,1719,Incorrect
incongruent_pointer_middle,38,34,1,106,81.8,68.47,0.09,1.08,106,4182,Correct
incongruent_pointer_middle,38,35,2,107,41.05,57.03,0.05,0.9,107,2394,Correct
incongruent_pointer_middle,38,36,1,106,51.06,41.76,0.06,0.66,106,4996,Correct
incongruent_pointer_middle,38,37,1,106,83.95,56.64,0.09,0.89,106,1037,Correct
incongruent_pointer_middle,38,38,1,102,43.02,73.49,0.05,1.15,106,936,Incorrect
incongruent_pointer_middle,38,39,2,107,16.4,42.74,0.02,0.67,107,3570,Correct
incongruent_pointer_middle,38,40,2,107,44.67,61.69,0.05,0.97,107,2405,Correct
incongruent_pointer_middle,38,41,2,100,58.64,30.18,0.07,0.47,100,959,Correct
incongruent_pointer_middle,38,42,1,106,74.54,44.79,0.08,0.7,106,1184,Correct
incongruent_pointer_middle,38,43,1,106,77.35,49.66,0.09,0.78,106,1737,Correct
incongruent_pointer_middle,38,44,1,102,47.14,54.1,0.05,0.85,106,859,Incorrect
incongruent_pointer_middle,38,45,2,107,30.59,42.32,0.03,0.66,100,5739,Incorrect
incongruent_pointer_middle,38,46,2,107,42.63,49.61,0.05,0.78,107,1624,Correct
incongruent_pointer_middle,38,47,1,106,59.55,38.05,0.07,0.6,102,1365,Incorrect
incongruent_pointer_middle,38,48,1,102,51.62,59.26,0.06,0.93,106,1395,Incorrect
incongruent_pointer_middle,38,49,2,107,65.63,78.59,0.07,1.23,100,1125,Incorrect
incongruent_pointer_middle,38,50,1,106,64.81,52.87,0.07,0.83,106,1511,Correct
incongruent_pointer_middle,38,51,1,106,46.54,18.52,0.05,0.29,102,1325,Incorrect
incongruent_pointer_middle,38,52,2,107,49.49,58.1,0.06,0.91,107,3681,Correct
incongruent_pointer_middle,38,53,1,106,56.74,42.68,0.06,0.67,106,1322,Correct
incongruent_pointer_middle,38,54,1,106,45.76,27.18,0.05,0.43,102,1585,Incorrect
incongruent_pointer_middle,38,55,1,106,56.16,24.05,0.06,0.38,106,1528,Correct
incongruent_pointer_middle,38,56,2,107,12.82,39.28,0.01,0.62,100,3135,Incorrect
incongruent_pointer_middle,38,57,2,107,38.26,46.33,0.04,0.73,107,963,Correct
incongruent_pointer_middle,38,58,1,102,17.92,36.36,0.02,0.57,106,1132,Incorrect
incongruent_pointer_middle,38,59,1,106,37.54,19.52,0.04,0.31,106,4890,Correct
incongruent_pointer_middle,38,60,1,102,61.44,83.51,0.07,1.31,102,1021,Correct
incongruent_pointer_middle,38,61,2,107,17.03,43.33,0.02,0.68,107,2557,Correct
incongruent_pointer_middle,38,62,1,102,16.0,30.8,0.02,0.48,106,2325,Incorrect
incongruent_pointer_middle,38,63,2,107,13.56,40.83,0.02,0.64,107,2171,Correct
incongruent_pointer_middle,38,64,2,100,70.01,57.45,0.08,0.9,107,2926,Incorrect
incongruent_pointer_middle,38,65,2,107,36.25,49.85,0.04,0.78,107,2760,Correct
incongruent_pointer_middle,38,66,2,107,41.57,72.64,0.05,1.14,100,997,Incorrect
incongruent_pointer_middle,38,67,1,102,45.07,70.01,0.05,1.1,106,1872,Incorrect
incongruent_pointer_middle,38,68,2,107,21.2,41.61,0.02,0.65,107,1354,Correct
incongruent_pointer_middle,38,69,2,100,76.91,56.95,0.09,0.89,107,1438,Incorrect
incongruent_pointer_middle,38,70,1,106,36.4,24.32,0.04,0.38,106,3339,Correct
incongruent_pointer_middle,38,71,2,107,15.52,43.94,0.02,0.69,107,1044,Correct
incongruent_pointer_middle,38,72,1,106,36.99,14.33,0.04,0.23,106,1607,Correct
incongruent_pointer_middle,38,73,2,107,20.55,41.04,0.02,0.64,107,1180,Correct
incongruent_pointer_middle,38,74,1,102,45.24,57.04,0.05,0.9,106,803,Incorrect
incongruent_pointer_middle,38,75,1,106,72.17,59.63,0.08,0.94,102,1032,Incorrect
incongruent_pointer_middle,38,76,1,102,42.12,51.48,0.05,0.81,106,965,Incorrect
incongruent_pointer_middle,38,77,1,102,35.38,46.78,0.04,0.73,106,330,Incorrect
incongruent_pointer_middle,38,78,2,107,68.41,89.5,0.08,1.41,107,985,Correct
incongruent_pointer_middle,38,79,2,107,15.21,42.22,0.02,0.66,107,998,Correct
incongruent_pointer_middle,38,80,1,102,48.27,70.08,0.05,1.1,102,1978,Correct
incongruent_pointer_middle,38,81,1,102,18.75,45.37,0.02,0.71,102,3355,Correct
incongruent_pointer_middle,38,82,1,106,49.38,21.95,0.06,0.34,102,2687,Incorrect
incongruent_pointer_middle,38,83,1,106,67.85,50.19,0.08,0.79,106,2242,Correct
incongruent_pointer_middle,38,84,1,102,39.6,63.44,0.04,1.0,102,3299,Correct
incongruent_pointer_middle,38,85,1,106,56.13,23.83,0.06,0.37,102,1900,Incorrect
incongruent_pointer_middle,38,86,2,100,70.15,51.23,0.08,0.8,107,1748,Incorrect
incongruent_pointer_middle,38,87,1,106,75.47,59.77,0.08,0.94,102,1528,Incorrect
incongruent_pointer_middle,38,88,2,107,64.99,78.29,0.07,1.23,100,1417,Incorrect
incongruent_pointer_middle,38,89,1,102,46.87,77.24,0.05,1.21,106,4137,Incorrect
incongruent_pointer_middle,38,90,2,100,50.14,27.57,0.06,0.43,107,2177,Incorrect
incongruent_pointer_middle,38,91,2,107,23.99,35.32,0.03,0.55,107,1200,Correct
incongruent_pointer_middle,38,92,2,100,41.24,23.35,0.05,0.37,100,1658,Correct
incongruent_pointer_middle,38,93,1,106,70.72,49.41,0.08,0.78,106,3095,Correct
incongruent_pointer_middle,38,94,2,107,33.87,43.41,0.04,0.68,107,2285,Correct
incongruent_pointer_middle,38,95,2,100,61.99,42.51,0.07,0.67,107,3444,Incorrect
incongruent_pointer_middle,38,96,2,100,79.23,64.04,0.09,1.01,100,2565,Correct
incongruent_pointer_middle,38,97,2,100,81.02,66.44,0.09,1.04,100,965,Correct
incongruent_pointer_middle,38,98,2,107,32.83,63.75,0.04,1.0,107,1078,Correct
incongruent_pointer_middle,38,99,2,107,55.51,63.07,0.06,0.99,100,1240,Incorrect
incongruent_pointer_middle,38,100,2,100,37.92,24.08,0.04,0.38,107,1373,Incorrect
incongruent_pointer_middle,38,101,1,106,73.27,44.86,0.08,0.7,102,2291,Incorrect
incongruent_pointer_middle,38,102,2,100,77.01,60.42,0.09,0.95,100,2885,Correct
incongruent_pointer_middle,38,103,2,100,70.94,60.38,0.08,0.95,100,1118,Correct
incongruent_pointer_middle,38,104,1,102,69.0,85.83,0.08,1.35,106,1825,Incorrect
incongruent_pointer_middle,38,105,2,107,49.28,59.99,0.06,0.94,100,4542,Incorrect
incongruent_pointer_middle,38,106,2,100,48.32,26.54,0.05,0.42,107,2089,Incorrect
incongruent_pointer_middle,38,107,1,102,54.31,79.93,0.06,1.26,102,5344,Correct
incongruent_pointer_middle,38,108,2,107,46.12,58.04,0.05,0.91,107,5713,Correct
incongruent_pointer_middle,38,109,1,106,38.59,18.04,0.04,0.28,106,11824,Correct
incongruent_pointer_middle,38,110,2,107,24.2,35.51,0.03,0.56,107,863,Correct
incongruent_pointer_middle,38,111,2,100,41.37,18.78,0.05,0.29,107,2040,Incorrect
incongruent_pointer_middle,38,112,2,100,32.75,11.26,0.04,0.18,107,2219,Incorrect
incongruent_pointer_middle,38,113,1,106,77.01,53.48,0.09,0.84,102,4756,Incorrect
incongruent_pointer_middle,38,114,1,106,37.33,26.38,0.04,0.41,102,2565,Incorrect
incongruent_pointer_middle,38,115,2,107,24.91,54.7,0.03,0.86,107,1697,Correct
incongruent_pointer_middle,38,116,2,107,22.76,49.35,0.03,0.78,107,904,Correct
incongruent_pointer_middle,38,117,2,107,47.93,74.58,0.05,1.17,107,4561,Correct
incongruent_pointer_middle,38,118,2,100,73.68,46.3,0.08,0.73,100,3737,Correct
incongruent_pointer_middle,38,119,2,107,49.3,61.96,0.06,0.97,107,1205,Correct
incongruent_pointer_middle,38,120,1,102,49.54,61.5,0.06,0.97,102,3445,Correct
incongruent_pointer_middle,38,121,1,106,77.52,53.34,0.09,0.84,106,3179,Correct
incongruent_pointer_middle,38,122,1,102,53.05,80.94,0.06,1.27,102,1677,Correct
incongruent_pointer_middle,38,123,2,107,28.94,47.85,0.03,0.75,107,1008,Correct
incongruent_pointer_middle,38,124,2,100,75.72,55.13,0.08,0.87,100,2046,Correct
incongruent_pointer_middle,38,125,2,107,36.61,54.31,0.04,0.85,107,1661,Correct
incongruent_pointer_middle,38,126,2,107,12.51,31.45,0.01,0.49,107,4404,Correct
incongruent_pointer_middle,38,127,1,102,23.2,34.93,0.03,0.55,102,1428,Correct
incongruent_pointer_middle,38,128,1,102,51.07,69.8,0.06,1.1,102,2614,Correct
incongruent_pointer_middle,38,129,2,100,34.57,21.84,0.04,0.34,107,1492,Incorrect
incongruent_pointer_middle,38,130,2,100,39.32,21.52,0.04,0.34,100,715,Correct
incongruent_pointer_middle,38,131,1,106,40.2,12.53,0.04,0.2,106,4282,Correct
incongruent_pointer_middle,38,132,1,102,48.19,60.35,0.05,0.95,102,1437,Correct
incongruent_pointer_middle,38,133,2,100,56.38,38.97,0.06,0.61,100,1515,Correct
incongruent_pointer_middle,38,134,2,107,31.48,42.63,0.04,0.67,107,1215,Correct
incongruent_pointer_middle,38,135,1,102,30.39,48.23,0.03,0.76,102,1306,Correct
incongruent_pointer_middle,38,136,1,106,62.5,31.83,0.07,0.5,106,1790,Correct
incongruent_pointer_middle,38,137,2,107,19.19,46.17,0.02,0.73,107,1176,Correct
incongruent_pointer_middle,38,138,1,102,35.99,55.73,0.04,0.88,102,6432,Correct
incongruent_pointer_middle,38,139,1,106,68.37,45.47,0.08,0.71,106,2989,Correct
incongruent_pointer_middle,38,140,2,107,36.83,46.37,0.04,0.73,107,3754,Correct
incongruent_pointer_middle,38,141,2,100,51.65,41.09,0.06,0.65,100,3940,Correct
incongruent_pointer_middle,38,142,2,100,45.72,34.89,0.05,0.55,100,1656,Correct
incongruent_pointer_middle,38,143,2,100,35.89,21.88,0.04,0.34,107,896,Incorrect
incongruent_pointer_middle,38,144,2,100,79.89,56.49,0.09,0.89,107,1245,Incorrect
incongruent_pointer_middle,38,145,2,107,53.95,71.65,0.06,1.13,100,960,Incorrect
incongruent_pointer_middle,38,146,1,102,53.45,78.28,0.06,1.23,106,1334,Incorrect
incongruent_pointer_middle,38,147,2,100,69.01,38.24,0.08,0.6,100,1503,Correct
incongruent_pointer_middle,38,148,1,102,36.26,64.4,0.04,1.01,102,2983,Correct
incongruent_pointer_middle,38,149,2,107,25.59,47.98,0.03,0.75,107,1043,Correct
incongruent_pointer_middle,38,150,2,100,80.85,68.11,0.09,1.07,100,2046,Correct
incongruent_pointer_middle,38,151,2,100,40.37,12.98,0.05,0.2,100,4326,Correct
incongruent_pointer_middle,38,152,1,106,40.83,12.92,0.05,0.2,106,2659,Correct
incongruent_pointer_middle,38,153,1,102,39.0,46.14,0.04,0.72,102,1422,Correct
incongruent_pointer_middle,38,154,2,100,63.66,36.65,0.07,0.58,100,2395,Correct
incongruent_pointer_middle,38,155,2,107,64.25,83.02,0.07,1.3,100,1931,Incorrect
incongruent_pointer_middle,38,156,1,102,12.5,33.28,0.01,0.52,102,1144,Correct
incongruent_pointer_middle,38,157,1,102,52.61,71.79,0.06,1.13,102,6294,Correct
incongruent_pointer_middle,38,158,1,106,47.6,28.77,0.05,0.45,102,2609,Incorrect
incongruent_pointer_middle,38,159,2,107,26.21,42.89,0.03,0.67,107,4759,Correct
incongruent_pointer_middle,38,160,2,107,40.32,54.4,0.05,0.85,107,1154,Correct
incongruent_pointer_middle,38,161,1,102,30.81,44.37,0.03,0.7,102,1913,Correct
incongruent_pointer_middle,38,162,1,102,21.76,42.94,0.02,0.67,102,1633,Correct
incongruent_pointer_middle,38,163,1,102,59.11,82.65,0.07,1.3,106,1212,Incorrect
incongruent_pointer_middle,38,164,1,106,66.67,41.16,0.07,0.65,106,1223,Correct
incongruent_pointer_middle,38,165,2,107,21.74,50.8,0.02,0.8,107,3015,Correct
incongruent_pointer_middle,38,166,1,102,45.74,54.23,0.05,0.85,102,3304,Correct
incongruent_pointer_middle,38,167,2,100,60.82,50.98,0.07,0.8,100,2005,Correct
incongruent_pointer_middle,38,168,2,107,31.52,41.13,0.04,0.65,107,4488,Correct
incongruent_pointer_middle,38,169,2,107,28.63,54.82,0.03,0.86,107,3884,Correct
incongruent_pointer_middle,38,170,2,100,43.08,32.25,0.05,0.51,100,1110,Correct
incongruent_pointer_middle,38,171,2,100,70.47,38.05,0.08,0.6,100,2328,Correct
incongruent_pointer_middle,38,172,2,107,38.6,61.49,0.04,0.97,107,7623,Correct
incongruent_pointer_middle,38,173,1,106,62.23,54.58,0.07,0.86,106,3313,Incorrect
incongruent_pointer_middle,38,174,2,107,45.71,64.88,0.05,1.02,100,3106,Incorrect
incongruent_pointer_middle,38,175,1,102,33.16,42.41,0.04,0.67,106,1444,Incorrect
incongruent_pointer_middle,38,176,1,106,67.41,41.73,0.08,0.66,106,1373,Correct
incongruent_pointer_middle,38,177,2,107,34.04,47.82,0.04,0.75,107,1916,Correct
incongruent_pointer_middle,38,178,2,100,80.66,66.92,0.09,1.05,100,3076,Correct
incongruent_pointer_middle,38,179,1,102,26.83,58.64,0.03,0.92,102,4405,Correct
incongruent_pointer_middle,38,180,1,102,55.43,66.57,0.06,1.05,106,3582,Incorrect
incongruent_pointer_middle,38,181,2,107,50.78,75.71,0.06,1.19,107,3184,Correct
incongruent_pointer_middle,38,182,2,107,20.39,50.36,0.02,0.79,107,2492,Correct
incongruent_pointer_middle,38,183,1,106,31.62,18.33,0.04,0.29,106,6358,Incorrect
incongruent_pointer_middle,38,184,1,106,55.02,32.69,0.06,0.51,106,2345,Correct
incongruent_pointer_middle,38,185,1,102,45.88,76.19,0.05,1.2,102,2497,Correct
incongruent_pointer_middle,38,186,2,107,20.52,34.8,0.02,0.55,107,1272,Correct
incongruent_pointer_middle,38,187,2,107,41.28,48.94,0.05,0.77,107,1468,Correct
incongruent_pointer_middle,38,188,1,106,80.4,49.14,0.09,0.77,106,3582,Correct
incongruent_pointer_middle,38,189,1,102,19.37,46.22,0.02,0.73,102,3578,Incorrect
incongruent_pointer_middle,38,190,1,106,71.19,41.01,0.08,0.64,106,1763,Correct
incongruent_pointer_middle,38,191,2,107,18.4,37.26,0.02,0.59,107,958,Correct
incongruent_pointer_middle,38,192,2,107,30.39,52.58,0.03,0.83,107,3141,Correct
incongruent_pointer_middle,38,193,2,100,78.49,53.32,0.09,0.84,100,2454,Correct
incongruent_pointer_middle,38,194,1,102,53.86,70.23,0.06,1.1,106,8448,Incorrect
incongruent_pointer_middle,38,195,1,106,87.5,61.76,0.1,0.97,106,2355,Correct
incongruent_pointer_middle,38,196,1,106,71.93,61.44,0.08,0.97,106,1641,Correct
incongruent_pointer_middle,38,197,2,100,61.65,48.99,0.07,0.77,100,1377,Correct
incongruent_pointer_middle,38,198,1,102,62.86,83.62,0.07,1.31,102,4928,Correct
incongruent_pointer_middle,38,199,2,100,48.92,42.06,0.05,0.66,107,6829,Incorrect
incongruent_pointer_middle,38,200,2,107,30.61,40.34,0.03,0.63,107,994,Correct
incongruent_pointer_middle,38,201,2,107,60.61,84.36,0.07,1.33,100,2828,Incorrect
incongruent_pointer_middle,38,202,2,100,57.21,38.67,0.06,0.61,100,1882,Correct
incongruent_pointer_middle,38,203,2,107,60.85,80.52,0.07,1.26,107,1030,Correct
incongruent_pointer_middle,38,204,2,107,68.87,87.51,0.08,1.37,107,1269,Correct
incongruent_pointer_middle,38,205,1,102,32.78,52.2,0.04,0.82,102,2429,Correct
incongruent_pointer_middle,38,206,2,107,20.72,39.14,0.02,0.61,107,1202,Correct
incongruent_pointer_middle,38,207,1,106,44.26,26.49,0.05,0.42,102,5508,Incorrect
incongruent_pointer_middle,38,208,1,106,76.52,51.95,0.09,0.82,106,1648,Correct
incongruent_pointer_middle,38,209,1,102,41.47,69.92,0.05,1.1,102,1450,Correct
incongruent_pointer_middle,38,210,2,100,45.31,33.04,0.05,0.52,107,1743,Incorrect
incongruent_pointer_middle,38,211,2,107,67.57,89.39,0.08,1.4,100,2836,Incorrect
incongruent_pointer_middle,38,212,2,100,78.94,59.12,0.09,0.93,100,7336,Correct
incongruent_pointer_middle,38,213,2,100,46.09,21.25,0.05,0.33,100,4785,Correct
incongruent_pointer_middle,38,214,1,102,29.13,45.36,0.03,0.71,102,1550,Correct
incongruent_pointer_middle,38,215,1,106,46.09,18.39,0.05,0.29,106,7553,Correct
incongruent_pointer_middle,38,216,2,107,22.29,48.77,0.02,0.77,107,715,Correct
incongruent_pointer_middle,38,217,2,100,60.37,38.46,0.07,0.6,100,1582,Correct
incongruent_pointer_middle,38,218,2,100,52.75,43.81,0.06,0.69,107,3054,Incorrect
incongruent_pointer_middle,38,219,2,107,18.26,41.23,0.02,0.65,107,2727,Correct
incongruent_pointer_middle,38,220,1,102,33.69,55.97,0.04,0.88,102,4929,Correct
incongruent_pointer_middle,38,221,1,106,78.82,47.9,0.09,0.75,106,2220,Correct
incongruent_pointer_middle,38,222,2,100,64.31,45.18,0.07,0.71,100,3062,Correct
incongruent_pointer_middle,38,223,1,106,56.48,30.18,0.06,0.47,102,6115,Incorrect
incongruent_pointer_middle,38,224,2,107,44.46,61.37,0.05,0.96,107,9202,Correct
incongruent_pointer_middle,38,225,1,102,33.91,61.35,0.04,0.96,106,1206,Incorrect
incongruent_pointer_middle,38,226,2,100,74.54,48.25,0.08,0.76,100,3178,Correct
incongruent_pointer_middle,38,227,1,106,66.59,41.11,0.07,0.65,106,27697,Correct
incongruent_pointer_middle,38,228,2,100,41.78,21.37,0.05,0.34,107,1856,Incorrect
incongruent_pointer_middle,38,229,1,102,54.18,65.45,0.06,1.03,106,4739,Incorrect
incongruent_pointer_middle,38,230,2,100,53.19,29.84,0.06,0.47,107,4830,Incorrect
incongruent_pointer_middle,38,231,2,107,57.76,73.65,0.06,1.16,100,7437,Incorrect
incongruent_pointer_middle,38,232,1,106,37.83,14.45,0.04,0.23,106,3465,Correct
incongruent_pointer_middle,38,233,2,107,62.4,80.32,0.07,1.26,107,6099,Correct
incongruent_pointer_middle,38,234,1,102,63.43,85.54,0.07,1.34,102,6565,Correct
incongruent_pointer_middle,38,235,1,102,52.72,74.42,0.06,1.17,102,4123,Correct
incongruent_pointer_middle,38,236,1,102,13.65,30.78,0.02,0.48,102,3191,Correct
incongruent_pointer_middle,38,237,1,102,21.44,51.88,0.02,0.81,102,1350,Correct
incongruent_pointer_middle,38,238,1,102,19.97,35.48,0.02,0.56,102,940,Correct
incongruent_pointer_middle,38,239,1,102,58.45,76.07,0.07,1.19,106,2486,Incorrect
incongruent_pointer_middle,38,240,1,106,78.97,52.0,0.09,0.82,106,4162,Correct
incongruent_pointer_middle,38,241,1,102,10.89,36.96,0.01,0.58,102,1514,Correct
incongruent_pointer_middle,38,242,2,100,74.01,48.26,0.08,0.76,100,2223,Correct
incongruent_pointer_middle,38,243,2,107,49.09,62.11,0.05,0.98,107,2103,Correct
incongruent_pointer_middle,38,244,2,107,33.59,66.0,0.04,1.04,107,1790,Correct
incongruent_pointer_middle,38,245,1,102,44.51,66.07,0.05,1.04,102,4455,Correct
incongruent_pointer_middle,38,246,2,100,45.14,16.85,0.05,0.26,107,2773,Incorrect
incongruent_pointer_middle,38,247,1,106,71.13,60.67,0.08,0.95,106,3687,Correct
incongruent_pointer_middle,38,248,1,106,62.83,32.15,0.07,0.51,106,18790,Correct
incongruent_pointer_middle,38,249,2,100,31.68,12.95,0.04,0.2,107,2488,Incorrect
incongruent_pointer_middle,38,250,2,100,70.0,41.8,0.08,0.66,100,3379,Correct
incongruent_pointer_middle,38,251,1,106,84.59,67.65,0.09,1.06,106,3505,Incorrect
incongruent_pointer_middle,38,252,2,107,41.01,54.22,0.05,0.85,107,1187,Correct
incongruent_pointer_middle,38,253,1,106,58.77,49.08,0.07,0.77,106,4548,Correct
incongruent_pointer_middle,38,254,2,107,47.03,64.23,0.05,1.01,107,6174,Correct
incongruent_pointer_middle,38,255,2,107,43.43,75.35,0.05,1.18,107,1352,Correct
incongruent_pointer_middle,38,256,1,102,21.62,42.82,0.02,0.67,102,1377,Correct
incongruent_pointer_middle,38,257,1,106,67.67,57.56,0.08,0.9,106,5514,Correct
incongruent_pointer_middle,38,258,1,102,47.61,72.49,0.05,1.14,102,1861,Correct
incongruent_pointer_middle,38,259,2,100,65.16,46.38,0.07,0.73,100,1919,Correct
incongruent_pointer_middle,38,260,2,107,22.6,35.32,0.03,0.55,107,1577,Correct
incongruent_pointer_middle,38,261,2,100,43.02,23.65,0.05,0.37,107,7181,Incorrect
incongruent_pointer_middle,38,262,2,100,36.3,19.84,0.04,0.31,100,2180,Correct
incongruent_pointer_middle,38,263,2,107,45.89,52.99,0.05,0.83,107,2168,Correct
incongruent_pointer_middle,38,264,2,100,44.23,32.42,0.05,0.51,100,1503,Correct
incongruent_pointer_middle,38,265,2,100,50.44,42.24,0.06,0.66,100,4137,Correct
incongruent_pointer_middle,38,266,1,102,44.25,71.4,0.05,1.12,102,4293,Correct
incongruent_pointer_middle,38,267,1,102,46.78,74.56,0.05,1.17,102,2126,Correct
incongruent_pointer_middle,38,268,2,100,36.24,12.57,0.04,0.2,100,1337,Incorrect
incongruent_pointer_middle,38,269,2,107,13.88,40.09,0.02,0.63,107,749,Correct
incongruent_pointer_middle,38,270,2,107,42.22,64.26,0.05,1.01,100,5358,Incorrect
incongruent_pointer_middle,38,271,1,106,37.38,16.14,0.04,0.25,102,2678,Incorrect
incongruent_pointer_middle,38,272,2,107,21.53,39.53,0.02,0.62,107,2136,Correct
incongruent_pointer_middle,38,273,1,106,79.38,50.88,0.09,0.8,102,4577,Incorrect
incongruent_pointer_middle,38,274,2,107,44.88,63.74,0.05,1.0,107,6956,Correct
incongruent_pointer_middle,38,275,2,100,43.37,30.58,0.05,0.48,100,4170,Correct
incongruent_pointer_middle,38,276,1,106,45.04,33.7,0.05,0.53,106,7204,Correct
incongruent_pointer_middle,38,277,2,100,67.69,36.78,0.08,0.58,100,1342,Correct
incongruent_pointer_middle,38,278,2,100,55.13,38.86,0.06,0.61,107,4943,Incorrect
incongruent_pointer_middle,38,279,1,106,53.63,35.45,0.06,0.56,102,2508,Incorrect
incongruent_pointer_middle,38,280,1,106,56.58,44.95,0.06,0.71,106,3228,Correct
incongruent_pointer_middle,38,281,1,106,44.16,27.07,0.05,0.43,106,1685,Incorrect
incongruent_pointer_middle,38,282,1,106,66.87,34.57,0.07,0.54,106,2280,Correct
incongruent_pointer_middle,38,283,2,100,44.22,31.16,0.05,0.49,107,2031,Incorrect
incongruent_pointer_middle,38,284,2,107,55.16,73.19,0.06,1.15,107,3345,Correct
incongruent_pointer_middle,38,285,2,100,72.96,58.15,0.08,0.91,100,2642,Correct
incongruent_pointer_middle,38,286,2,100,50.42,21.2,0.06,0.33,107,4773,Incorrect
incongruent_pointer_middle,38,287,1,106,47.16,17.33,0.05,0.27,106,14539,Correct
incongruent_pointer_middle,38,288,1,102,15.31,44.66,0.02,0.7,102,1363,Correct
incongruent_pointer_middle,38,289,2,100,80.7,67.7,0.09,1.06,100,1511,Correct
incongruent_pointer_middle,38,290,1,102,42.75,74.08,0.05,1.16,106,6522,Incorrect
incongruent_pointer_middle,38,291,1,102,11.61,30.8,0.01,0.48,102,2502,Correct
incongruent_pointer_middle,38,292,2,107,36.27,50.7,0.04,0.8,107,5766,Correct
incongruent_pointer_middle,38,293,1,102,19.94,47.17,0.02,0.74,102,3797,Correct
incongruent_pointer_middle,38,294,2,100,65.59,47.1,0.07,0.74,100,2481,Correct
incongruent_pointer_middle,38,295,1,106,73.4,42.33,0.08,0.66,106,2715,Correct
incongruent_pointer_middle,38,296,2,107,37.57,69.01,0.04,1.08,107,5983,Correct
incongruent_pointer_middle,38,297,2,100,50.48,36.69,0.06,0.58,107,2599,Incorrect
incongruent_pointer_middle,38,298,1,106,52.75,22.31,0.06,0.35,106,4317,Correct
incongruent_pointer_middle,38,299,2,100,83.51,64.31,0.09,1.01,100,2050,Correct
incongruent_pointer_middle,38,300,1,106,54.23,45.08,0.06,0.71,106,4577,Correct
incongruent_pointer_middle,38,301,1,102,23.29,47.51,0.03,0.75,102,1592,Correct
incongruent_pointer_middle,38,302,2,100,46.81,19.48,0.05,0.31,100,4437,Correct
incongruent_pointer_middle,38,303,2,100,42.47,22.82,0.05,0.36,107,4359,Incorrect
incongruent_pointer_middle,38,304,2,100,67.81,40.97,0.08,0.64,100,1878,Correct
incongruent_pointer_middle,38,305,2,100,60.76,36.45,0.07,0.57,100,1676,Correct
incongruent_pointer_middle,38,306,1,102,60.91,71.6,0.07,1.12,106,2372,Incorrect
incongruent_pointer_middle,38,307,1,102,18.87,42.44,0.02,0.67,102,5030,Correct
incongruent_pointer_middle,38,308,1,102,55.87,74.88,0.06,1.18,102,6044,Correct
incongruent_pointer_middle,38,309,1,106,42.6,22.74,0.05,0.36,106,4908,Correct
incongruent_pointer_middle,38,310,1,106,45.78,21.22,0.05,0.33,102,9720,Incorrect
incongruent_pointer_middle,38,311,1,102,18.31,43.97,0.02,0.69,102,4395,Correct
incongruent_pointer_middle,38,312,1,106,66.82,48.85,0.07,0.77,106,4884,Correct
incongruent_pointer_middle,38,313,2,107,36.4,49.57,0.04,0.78,107,1675,Correct
incongruent_pointer_middle,38,314,1,102,54.08,70.75,0.06,1.11,106,7017,Incorrect
incongruent_pointer_middle,38,315,1,106,54.93,37.79,0.06,0.59,106,4451,Correct
incongruent_pointer_middle,38,316,2,107,47.87,67.77,0.05,1.06,107,1485,Correct
incongruent_pointer_middle,38,317,1,102,36.06,55.23,0.04,0.87,102,8495,Correct
incongruent_pointer_middle,38,318,1,102,46.96,62.34,0.05,0.98,102,12058,Correct
incongruent_pointer_middle,38,319,1,102,55.25,66.51,0.06,1.04,106,1524,Incorrect
incongruent_pointer_middle,38,320,2,100,43.2,16.52,0.05,0.26,100,3098,Correct
incongruent_pointer_middle,38,321,1,106,72.8,47.29,0.08,0.74,106,1614,Correct
incongruent_pointer_middle,38,322,2,107,55.02,64.26,0.06,1.01,107,3017,Correct
incongruent_pointer_middle,38,323,2,107,39.5,56.83,0.04,0.89,107,1108,Correct
incongruent_pointer_middle,38,324,2,107,23.42,43.9,0.03,0.69,107,846,Correct
incongruent_pointer_middle,38,325,1,102,13.21,30.18,0.01,0.47,102,697,Correct
incongruent_pointer_middle,38,326,2,100,60.37,44.61,0.07,0.7,100,1462,Correct
incongruent_pointer_middle,38,327,2,107,64.63,85.12,0.07,1.34,100,1459,Incorrect
incongruent_pointer_middle,38,328,2,100,88.16,61.56,0.1,0.97,100,3607,Correct
incongruent_pointer_middle,38,329,1,102,34.28,61.71,0.04,0.97,102,2195,Correct
incongruent_pointer_middle,38,330,2,100,39.87,13.14,0.04,0.21,100,2540,Correct
incongruent_pointer_middle,38,331,2,100,52.24,30.16,0.06,0.47,107,1620,Incorrect
incongruent_pointer_middle,38,332,1,102,33.97,43.87,0.04,0.69,102,1498,Correct
incongruent_pointer_middle,38,333,1,102,37.54,52.19,0.04,0.82,106,10647,Incorrect
incongruent_pointer_middle,38,334,2,107,59.98,80.19,0.07,1.26,100,1539,Incorrect
incongruent_pointer_middle,38,335,2,107,13.47,42.03,0.02,0.66,107,1536,Correct
incongruent_pointer_middle,38,336,2,107,50.03,69.08,0.06,1.09,107,3751,Correct
incongruent_pointer_middle,38,337,1,106,74.75,55.24,0.08,0.87,102,6943,Incorrect
incongruent_pointer_middle,38,338,1,106,62.92,54.97,0.07,0.86,102,2191,Incorrect
incongruent_pointer_middle,38,339,2,107,63.36,78.63,0.07,1.24,100,3011,Incorrect
incongruent_pointer_middle,38,340,2,100,76.51,59.02,0.09,0.93,100,1532,Correct
incongruent_pointer_middle,38,341,1,106,61.16,53.57,0.07,0.84,102,4719,Incorrect
incongruent_pointer_middle,38,342,2,100,36.54,19.99,0.04,0.31,107,1606,Incorrect
incongruent_pointer_middle,38,343,2,100,79.15,67.27,0.09,1.06,100,1336,Correct
incongruent_pointer_middle,38,344,2,100,66.03,37.63,0.07,0.59,100,4544,Correct
incongruent_pointer_middle,38,345,1,102,58.42,80.14,0.07,1.26,106,3349,Incorrect
incongruent_pointer_middle,38,346,1,106,48.17,30.28,0.05,0.48,106,4028,Correct
incongruent_pointer_middle,38,347,1,106,57.11,42.42,0.06,0.67,106,2653,Correct
incongruent_pointer_middle,38,348,2,100,71.52,57.83,0.08,0.91,100,3382,Correct
incongruent_pointer_middle,38,349,2,107,29.07,61.63,0.03,0.97,107,1158,Correct
incongruent_pointer_middle,38,350,1,106,39.19,13.54,0.04,0.21,102,3402,Incorrect
incongruent_pointer_middle,38,351,1,106,70.65,38.13,0.08,0.6,102,2819,Incorrect
incongruent_pointer_middle,38,352,1,106,54.11,33.58,0.06,0.53,106,14212,Correct
incongruent_pointer_middle,38,353,2,100,67.86,37.22,0.08,0.58,100,1142,Correct
incongruent_pointer_middle,38,354,1,102,45.33,71.61,0.05,1.12,102,5042,Correct
incongruent_pointer_middle,38,355,2,100,32.45,10.85,0.04,0.17,107,4910,Incorrect
incongruent_pointer_middle,38,356,2,100,84.27,64.26,0.09,1.01,100,3522,Correct
incongruent_pointer_middle,38,357,1,106,35.3,24.6,0.04,0.39,102,2895,Incorrect
incongruent_pointer_middle,38,358,2,107,16.28,45.45,0.02,0.71,107,4793,Correct
incongruent_pointer_middle,38,359,2,107,69.45,88.1,0.08,1.38,100,1225,Incorrect
incongruent_pointer_middle,38,360,1,106,45.01,31.12,0.05,0.49,102,2186,Incorrect
incongruent_pointer_middle,38,361,1,106,77.66,47.87,0.09,0.75,106,2379,Correct
incongruent_pointer_middle,38,362,2,107,16.33,46.67,0.02,0.73,107,1893,Correct
incongruent_pointer_middle,38,363,1,106,36.04,11.24,0.04,0.18,106,4329,Correct
incongruent_pointer_middle,38,364,1,106,85.63,63.05,0.1,0.99,106,6958,Correct
incongruent_pointer_middle,38,365,1,106,41.41,17.83,0.05,0.28,102,5530,Incorrect
incongruent_pointer_middle,38,366,2,107,15.45,35.7,0.02,0.56,107,1266,Correct
incongruent_pointer_middle,38,367,2,107,57.8,82.13,0.06,1.29,107,4672,Correct
incongruent_pointer_middle,38,368,2,107,25.11,45.48,0.03,0.71,107,675,Correct
incongruent_pointer_middle,38,369,2,107,65.12,89.49,0.07,1.41,107,1879,Correct
incongruent_pointer_middle,38,370,2,107,50.07,75.6,0.06,1.19,107,1433,Correct
incongruent_pointer_middle,38,371,2,100,73.38,43.22,0.08,0.68,100,1248,Correct
incongruent_pointer_middle,38,372,2,100,73.31,53.21,0.08,0.84,100,1393,Correct
incongruent_pointer_middle,38,373,2,100,64.77,53.06,0.07,0.83,100,1359,Correct
incongruent_pointer_middle,38,374,1,102,52.01,62.23,0.06,0.98,106,2034,Incorrect
incongruent_pointer_middle,38,375,1,106,55.23,25.23,0.06,0.4,102,1036,Incorrect
incongruent_pointer_middle,38,376,2,100,54.6,28.64,0.06,0.45,100,2072,Correct
incongruent_pointer_middle,38,377,1,106,45.66,22.9,0.05,0.36,106,2247,Correct
incongruent_pointer_middle,38,378,2,107,30.69,59.54,0.03,0.94,107,3055,Correct
incongruent_pointer_middle,38,379,1,106,86.01,65.07,0.1,1.02,106,3906,Correct
incongruent_pointer_middle,38,380,2,100,35.72,18.57,0.04,0.29,107,679,Incorrect
incongruent_pointer_middle,38,381,1,106,73.02,40.11,0.08,0.63,106,1548,Correct
incongruent_pointer_middle,38,382,2,107,45.12,59.19,0.05,0.93,107,1612,Correct
incongruent_pointer_middle,38,383,2,107,31.04,40.96,0.03,0.64,107,820,Correct
incongruent_pointer_middle,38,384,2,107,67.26,85.16,0.08,1.34,107,2439,Correct
incongruent_pointer_middle,38,385,1,102,33.17,48.93,0.04,0.77,102,1280,Correct
incongruent_pointer_middle,38,386,2,107,33.1,43.27,0.04,0.68,107,1435,Incorrect
incongruent_pointer_middle,38,387,1,106,52.4,37.08,0.06,0.58,102,2088,Incorrect
incongruent_pointer_middle,38,388,2,100,77.15,44.92,0.09,0.71,100,856,Correct
incongruent_pointer_middle,38,389,2,100,37.49,27.34,0.04,0.43,107,1029,Incorrect
incongruent_pointer_middle,38,390,1,106,33.67,19.76,0.04,0.31,102,15794,Incorrect
incongruent_pointer_middle,38,391,1,106,47.78,20.04,0.05,0.31,106,1709,Correct
incongruent_pointer_middle,38,392,1,102,31.29,61.0,0.04,0.96,102,1303,Correct
incongruent_pointer_middle,38,393,1,102,41.95,66.03,0.05,1.04,107,1640,Incorrect
incongruent_pointer_middle,38,394,2,100,43.89,19.16,0.05,0.3,100,2108,Correct
incongruent_pointer_middle,38,395,2,107,69.61,87.69,0.08,1.38,100,1197,Incorrect
incongruent_pointer_middle,38,396,1,102,32.57,44.95,0.04,0.71,102,2315,Correct
incongruent_pointer_middle,38,397,1,106,55.66,42.95,0.06,0.67,102,4627,Incorrect
incongruent_pointer_middle,38,398,1,106,67.33,40.78,0.08,0.64,106,4968,Correct
