condition,subject,trial,sub_task,cat,x,y,xt,yt,resp,rt,fb
incongruent_pointer_middle,22,0,1,106,31.99,12.93,0.04,0.2,102,1161,Incorrect
incongruent_pointer_middle,22,1,1,106,79.02,58.21,0.09,0.91,102,1510,Incorrect
incongruent_pointer_middle,22,2,2,100,72.99,63.3,0.08,0.99,100,1335,Correct
incongruent_pointer_middle,22,3,2,100,44.82,26.12,0.05,0.41,100,1176,Correct
incongruent_pointer_middle,22,4,2,100,49.05,39.29,0.05,0.62,100,623,Correct
incongruent_pointer_middle,22,5,2,107,46.72,65.03,0.05,1.02,100,623,Incorrect
incongruent_pointer_middle,22,6,1,102,56.98,68.07,0.06,1.07,102,1167,Correct
incongruent_pointer_middle,22,7,2,107,18.43,41.84,0.02,0.66,107,792,Correct
incongruent_pointer_middle,22,8,1,106,58.43,41.51,0.07,0.65,102,937,Incorrect
incongruent_pointer_middle,22,9,1,106,58.27,50.54,0.07,0.79,106,735,Correct
incongruent_pointer_middle,22,10,2,100,48.94,38.27,0.05,0.6,100,1303,Correct
incongruent_pointer_middle,22,11,2,100,65.67,39.63,0.07,0.62,100,845,Correct
incongruent_pointer_middle,22,12,2,107,43.67,71.33,0.05,1.12,107,602,Correct
incongruent_pointer_middle,22,13,1,102,31.78,59.89,0.04,0.94,102,1214,Correct
incongruent_pointer_middle,22,14,2,100,34.48,17.55,0.04,0.28,107,1059,Incorrect
incongruent_pointer_middle,22,15,1,106,54.48,33.39,0.06,0.52,106,1033,Correct
incongruent_pointer_middle,22,16,2,100,51.65,39.9,0.06,0.63,100,1279,Correct
incongruent_pointer_middle,22,17,2,107,37.06,44.63,0.04,0.7,107,1837,Correct
incongruent_pointer_middle,22,18,2,100,69.37,41.14,0.08,0.65,100,1115,Correct
incongruent_pointer_middle,22,19,2,100,38.27,25.32,0.04,0.4,107,547,Incorrect
incongruent_pointer_middle,22,20,2,100,38.89,22.27,0.04,0.35,100,895,Correct
incongruent_pointer_middle,22,21,2,107,29.91,56.28,0.03,0.88,100,813,Incorrect
incongruent_pointer_middle,22,22,1,106,42.42,14.03,0.05,0.22,102,1152,Incorrect
incongruent_pointer_middle,22,23,1,102,29.71,40.47,0.03,0.64,102,1162,Correct
incongruent_pointer_middle,22,24,1,106,72.09,56.29,0.08,0.88,102,2297,Incorrect
incongruent_pointer_middle,22,25,1,106,58.57,29.21,0.07,0.46,106,863,Correct
incongruent_pointer_middle,22,26,2,100,70.82,54.94,0.08,0.86,100,410,Correct
incongruent_pointer_middle,22,27,2,100,79.34,50.66,0.09,0.8,100,524,Correct
incongruent_pointer_middle,22,28,1,106,76.9,48.79,0.09,0.77,106,1505,Correct
incongruent_pointer_middle,22,29,2,100,52.65,27.18,0.06,0.43,100,1425,Correct
incongruent_pointer_middle,22,30,1,102,35.06,55.64,0.04,0.87,102,2875,Correct
incongruent_pointer_middle,22,31,2,100,48.34,26.09,0.05,0.41,100,1181,Correct
incongruent_pointer_middle,22,32,2,100,48.98,36.58,0.05,0.57,107,1949,Incorrect
incongruent_pointer_middle,22,33,2,107,53.19,70.54,0.06,1.11,100,542,Incorrect
incongruent_pointer_middle,22,34,2,107,56.14,67.54,0.06,1.06,107,686,Correct
incongruent_pointer_middle,22,35,1,102,21.82,46.63,0.02,0.73,102,2046,Correct
incongruent_pointer_middle,22,36,1,106,62.81,48.15,0.07,0.76,106,618,Correct
incongruent_pointer_middle,22,37,1,106,64.6,38.32,0.07,0.6,102,925,Incorrect
incongruent_pointer_middle,22,38,2,107,20.61,40.93,0.02,0.64,107,721,Correct
incongruent_pointer_middle,22,39,1,102,38.93,48.24,0.04,0.76,106,1609,Incorrect
incongruent_pointer_middle,22,40,2,100,54.59,27.11,0.06,0.43,100,2122,Correct
incongruent_pointer_middle,22,41,1,106,50.52,37.8,0.06,0.59,106,2479,Correct
incongruent_pointer_middle,22,42,1,102,39.41,71.63,0.04,1.13,102,1050,Correct
incongruent_pointer_middle,22,43,1,102,26.52,55.04,0.03,0.86,102,1340,Correct
incongruent_pointer_middle,22,44,2,107,28.78,52.17,0.03,0.82,107,1338,Correct
incongruent_pointer_middle,22,45,2,107,46.5,64.17,0.05,1.01,100,916,Incorrect
incongruent_pointer_middle,22,46,2,100,60.92,30.81,0.07,0.48,107,657,Incorrect
incongruent_pointer_middle,22,47,2,107,42.04,71.7,0.05,1.13,107,995,Correct
incongruent_pointer_middle,22,48,2,107,54.19,78.69,0.06,1.24,107,713,Correct
incongruent_pointer_middle,22,49,2,100,45.08,17.21,0.05,0.27,100,750,Correct
incongruent_pointer_middle,22,50,2,100,63.19,36.76,0.07,0.58,100,654,Correct
incongruent_pointer_middle,22,51,1,106,78.81,59.68,0.09,0.94,106,1151,Correct
incongruent_pointer_middle,22,52,2,100,67.78,54.09,0.08,0.85,107,992,Incorrect
incongruent_pointer_middle,22,53,1,102,44.5,69.07,0.05,1.08,102,799,Correct
incongruent_pointer_middle,22,54,2,107,35.83,54.62,0.04,0.86,100,835,Incorrect
incongruent_pointer_middle,22,55,2,107,46.23,73.82,0.05,1.16,107,596,Correct
incongruent_pointer_middle,22,56,2,107,22.26,39.02,0.02,0.61,100,1390,Incorrect
incongruent_pointer_middle,22,57,2,100,56.39,44.65,0.06,0.7,107,677,Incorrect
incongruent_pointer_middle,22,58,1,102,41.08,70.16,0.05,1.1,102,779,Correct
incongruent_pointer_middle,22,59,2,100,75.8,51.87,0.08,0.81,107,754,Incorrect
incongruent_pointer_middle,22,60,2,100,54.34,34.84,0.06,0.55,100,1040,Correct
incongruent_pointer_middle,22,61,1,102,64.4,80.82,0.07,1.27,102,1838,Correct
incongruent_pointer_middle,22,62,1,102,26.85,40.13,0.03,0.63,106,450,Incorrect
incongruent_pointer_middle,22,63,2,107,33.95,48.23,0.04,0.76,100,740,Incorrect
incongruent_pointer_middle,22,64,2,100,47.14,31.77,0.05,0.5,107,775,Incorrect
incongruent_pointer_middle,22,65,1,102,63.65,81.51,0.07,1.28,102,892,Correct
incongruent_pointer_middle,22,66,2,100,58.16,40.53,0.07,0.64,107,1343,Incorrect
incongruent_pointer_middle,22,67,1,106,72.5,43.98,0.08,0.69,102,788,Incorrect
incongruent_pointer_middle,22,68,2,107,45.46,63.36,0.05,1.0,100,709,Incorrect
incongruent_pointer_middle,22,69,1,102,13.13,40.63,0.01,0.64,102,1086,Correct
incongruent_pointer_middle,22,70,1,102,52.62,82.77,0.06,1.3,106,1203,Incorrect
incongruent_pointer_middle,22,71,2,100,46.44,23.36,0.05,0.37,100,742,Correct
incongruent_pointer_middle,22,72,1,106,79.44,56.65,0.09,0.89,106,2070,Incorrect
incongruent_pointer_middle,22,73,1,106,68.02,49.53,0.08,0.78,106,1512,Correct
incongruent_pointer_middle,22,74,2,107,25.58,43.65,0.03,0.69,100,753,Incorrect
incongruent_pointer_middle,22,75,1,102,20.99,48.16,0.02,0.76,106,1431,Incorrect
incongruent_pointer_middle,22,76,1,106,55.91,26.11,0.06,0.41,102,777,Incorrect
incongruent_pointer_middle,22,77,2,107,61.55,70.9,0.07,1.11,107,1111,Correct
incongruent_pointer_middle,22,78,1,102,18.25,36.56,0.02,0.57,106,1141,Incorrect
incongruent_pointer_middle,22,79,1,102,42.38,58.34,0.05,0.92,106,1523,Incorrect
incongruent_pointer_middle,22,80,1,106,67.53,47.46,0.08,0.75,102,755,Incorrect
incongruent_pointer_middle,22,81,2,100,46.0,30.15,0.05,0.47,100,1191,Correct
incongruent_pointer_middle,22,82,1,102,39.18,50.86,0.04,0.8,102,4684,Correct
incongruent_pointer_middle,22,83,1,102,36.18,60.81,0.04,0.96,102,1166,Correct
incongruent_pointer_middle,22,84,2,107,30.42,44.21,0.03,0.69,100,697,Incorrect
incongruent_pointer_middle,22,85,1,102,37.48,46.08,0.04,0.72,102,1384,Correct
incongruent_pointer_middle,22,86,2,107,53.33,68.86,0.06,1.08,107,976,Correct
incongruent_pointer_middle,22,87,2,100,86.37,69.0,0.1,1.08,107,1065,Incorrect
incongruent_pointer_middle,22,88,1,102,30.28,54.12,0.03,0.85,106,1568,Incorrect
incongruent_pointer_middle,22,89,2,107,12.06,33.7,0.01,0.53,100,2269,Incorrect
incongruent_pointer_middle,22,90,2,107,23.28,51.8,0.03,0.81,107,779,Correct
incongruent_pointer_middle,22,91,1,102,12.73,40.55,0.01,0.64,102,1682,Correct
incongruent_pointer_middle,22,92,2,100,64.17,41.11,0.07,0.65,107,1387,Incorrect
incongruent_pointer_middle,22,93,2,107,28.32,47.39,0.03,0.74,100,786,Incorrect
incongruent_pointer_middle,22,94,1,102,30.89,61.41,0.03,0.96,106,1962,Incorrect
incongruent_pointer_middle,22,95,1,102,56.95,66.83,0.06,1.05,102,1420,Correct
incongruent_pointer_middle,22,96,2,107,14.74,40.59,0.02,0.64,100,1134,Incorrect
incongruent_pointer_middle,22,97,2,107,41.91,50.42,0.05,0.79,107,1598,Correct
incongruent_pointer_middle,22,98,2,107,63.74,76.07,0.07,1.19,100,832,Incorrect
incongruent_pointer_middle,22,99,1,102,13.51,36.96,0.02,0.58,102,1876,Correct
incongruent_pointer_middle,22,100,1,102,48.68,64.43,0.05,1.01,106,3110,Incorrect
incongruent_pointer_middle,22,101,2,100,41.67,18.01,0.05,0.28,107,938,Incorrect
incongruent_pointer_middle,22,102,1,106,50.96,37.13,0.06,0.58,102,2353,Incorrect
incongruent_pointer_middle,22,103,1,106,32.39,10.65,0.04,0.17,102,1426,Incorrect
incongruent_pointer_middle,22,104,2,100,74.62,48.64,0.08,0.76,100,767,Correct
incongruent_pointer_middle,22,105,1,102,21.76,33.21,0.02,0.52,102,1487,Correct
incongruent_pointer_middle,22,106,1,106,33.8,10.31,0.04,0.16,102,1490,Incorrect
incongruent_pointer_middle,22,107,1,106,33.44,10.89,0.04,0.17,106,629,Correct
incongruent_pointer_middle,22,108,2,100,67.21,35.97,0.08,0.56,100,1072,Correct
incongruent_pointer_middle,22,109,2,107,46.3,53.47,0.05,0.84,107,659,Correct
incongruent_pointer_middle,22,110,1,106,71.72,59.17,0.08,0.93,106,1707,Correct
incongruent_pointer_middle,22,111,2,107,40.55,62.79,0.05,0.99,107,1103,Correct
incongruent_pointer_middle,22,112,2,100,59.6,33.5,0.07,0.53,100,837,Correct
incongruent_pointer_middle,22,113,2,100,76.1,48.97,0.09,0.77,100,923,Correct
incongruent_pointer_middle,22,114,2,107,66.42,83.59,0.07,1.31,107,806,Correct
incongruent_pointer_middle,22,115,2,107,68.93,82.69,0.08,1.3,107,818,Correct
incongruent_pointer_middle,22,116,1,102,18.88,42.56,0.02,0.67,102,1213,Correct
incongruent_pointer_middle,22,117,2,107,16.93,46.21,0.02,0.73,100,927,Incorrect
incongruent_pointer_middle,22,118,2,107,59.16,83.77,0.07,1.32,107,828,Correct
incongruent_pointer_middle,22,119,2,107,46.13,54.68,0.05,0.86,100,2632,Incorrect
incongruent_pointer_middle,22,120,2,100,62.38,33.5,0.07,0.53,107,691,Incorrect
incongruent_pointer_middle,22,121,1,102,48.64,71.41,0.05,1.12,106,1245,Incorrect
incongruent_pointer_middle,22,122,2,100,55.25,28.91,0.06,0.45,100,733,Correct
incongruent_pointer_middle,22,123,2,100,54.59,46.59,0.06,0.73,100,846,Correct
incongruent_pointer_middle,22,124,2,100,60.63,46.15,0.07,0.72,100,392,Correct
incongruent_pointer_middle,22,125,1,106,69.25,39.71,0.08,0.62,102,1028,Incorrect
incongruent_pointer_middle,22,126,1,102,22.59,48.23,0.03,0.76,102,1306,Correct
incongruent_pointer_middle,22,127,1,102,23.99,54.95,0.03,0.86,102,873,Correct
incongruent_pointer_middle,22,128,2,100,58.37,46.34,0.07,0.73,100,529,Correct
incongruent_pointer_middle,22,129,1,102,28.08,49.3,0.03,0.77,106,838,Incorrect
incongruent_pointer_middle,22,130,1,102,21.87,37.56,0.02,0.59,102,610,Correct
incongruent_pointer_middle,22,131,2,100,58.79,34.75,0.07,0.55,100,577,Correct
incongruent_pointer_middle,22,132,2,107,28.76,49.3,0.03,0.77,100,763,Incorrect
incongruent_pointer_middle,22,133,2,100,71.46,39.32,0.08,0.62,100,1132,Correct
incongruent_pointer_middle,22,134,2,100,61.85,30.47,0.07,0.48,100,1104,Correct
incongruent_pointer_middle,22,135,2,100,37.74,23.39,0.04,0.37,100,499,Correct
incongruent_pointer_middle,22,136,1,102,30.8,42.71,0.03,0.67,102,404,Correct
incongruent_pointer_middle,22,137,1,106,47.44,25.34,0.05,0.4,102,1422,Incorrect
incongruent_pointer_middle,22,138,1,102,31.77,48.33,0.04,0.76,102,484,Correct
incongruent_pointer_middle,22,139,2,107,39.39,56.79,0.04,0.89,100,1139,Incorrect
incongruent_pointer_middle,22,140,1,106,69.2,43.17,0.08,0.68,106,602,Correct
incongruent_pointer_middle,22,141,2,107,67.86,87.16,0.08,1.37,107,1199,Correct
incongruent_pointer_middle,22,142,2,100,51.54,21.99,0.06,0.35,100,443,Correct
incongruent_pointer_middle,22,143,1,102,66.44,86.32,0.07,1.36,106,787,Incorrect
incongruent_pointer_middle,22,144,1,106,47.26,36.0,0.05,0.57,106,1091,Correct
incongruent_pointer_middle,22,145,1,102,41.33,50.27,0.05,0.79,102,606,Correct
incongruent_pointer_middle,22,146,2,107,17.39,36.99,0.02,0.58,107,1876,Correct
incongruent_pointer_middle,22,147,1,106,54.6,25.65,0.06,0.4,106,916,Correct
incongruent_pointer_middle,22,148,1,106,64.82,40.0,0.07,0.63,106,688,Correct
incongruent_pointer_middle,22,149,1,102,40.51,58.56,0.05,0.92,102,875,Correct
incongruent_pointer_middle,22,150,1,106,64.35,48.09,0.07,0.76,106,883,Correct
incongruent_pointer_middle,22,151,2,107,14.22,30.13,0.02,0.47,100,749,Incorrect
incongruent_pointer_middle,22,152,2,100,48.67,41.7,0.05,0.65,107,1909,Incorrect
incongruent_pointer_middle,22,153,1,106,53.43,27.52,0.06,0.43,106,4160,Correct
incongruent_pointer_middle,22,154,2,100,88.62,64.32,0.1,1.01,107,1594,Incorrect
incongruent_pointer_middle,22,155,2,107,36.87,62.66,0.04,0.98,100,1710,Incorrect
incongruent_pointer_middle,22,156,1,102,51.98,68.51,0.06,1.08,106,1035,Incorrect
incongruent_pointer_middle,22,157,1,106,65.77,33.04,0.07,0.52,106,1024,Correct
incongruent_pointer_middle,22,158,1,102,55.26,74.75,0.06,1.17,102,953,Correct
incongruent_pointer_middle,22,159,1,102,27.58,59.63,0.03,0.94,102,777,Correct
incongruent_pointer_middle,22,160,2,100,34.11,15.07,0.04,0.24,100,1147,Correct
incongruent_pointer_middle,22,161,1,106,76.86,51.96,0.09,0.82,106,2155,Correct
incongruent_pointer_middle,22,162,2,107,38.13,47.61,0.04,0.75,100,2686,Incorrect
incongruent_pointer_middle,22,163,2,107,47.66,76.85,0.05,1.21,100,1655,Incorrect
incongruent_pointer_middle,22,164,2,100,64.87,47.5,0.07,0.75,107,1126,Incorrect
incongruent_pointer_middle,22,165,1,106,71.95,45.09,0.08,0.71,106,925,Correct
incongruent_pointer_middle,22,166,2,100,46.23,28.06,0.05,0.44,107,3177,Incorrect
incongruent_pointer_middle,22,167,1,102,15.84,33.47,0.02,0.53,102,864,Correct
incongruent_pointer_middle,22,168,1,102,47.59,79.1,0.05,1.24,102,1074,Correct
incongruent_pointer_middle,22,169,2,107,42.25,53.31,0.05,0.84,107,1166,Correct
incongruent_pointer_middle,22,170,2,107,36.41,45.6,0.04,0.72,100,1336,Incorrect
incongruent_pointer_middle,22,171,2,100,77.79,53.71,0.09,0.84,107,798,Incorrect
incongruent_pointer_middle,22,172,1,102,61.64,76.38,0.07,1.2,102,705,Correct
incongruent_pointer_middle,22,173,1,106,87.99,60.87,0.1,0.96,102,806,Incorrect
incongruent_pointer_middle,22,174,2,107,37.7,68.57,0.04,1.08,100,770,Incorrect
incongruent_pointer_middle,22,175,1,102,15.71,32.3,0.02,0.51,102,1473,Correct
incongruent_pointer_middle,22,176,1,102,32.86,56.77,0.04,0.89,106,919,Incorrect
incongruent_pointer_middle,22,177,2,100,73.67,60.93,0.08,0.96,107,1042,Incorrect
incongruent_pointer_middle,22,178,2,100,69.73,55.63,0.08,0.87,100,441,Correct
incongruent_pointer_middle,22,179,2,100,62.54,51.31,0.07,0.81,100,1287,Correct
incongruent_pointer_middle,22,180,1,106,74.56,50.8,0.08,0.8,106,1594,Correct
incongruent_pointer_middle,22,181,1,106,35.17,12.95,0.04,0.2,102,1031,Incorrect
incongruent_pointer_middle,22,182,2,100,67.26,39.8,0.08,0.63,107,2650,Incorrect
incongruent_pointer_middle,22,183,2,107,47.27,65.83,0.05,1.03,107,3848,Correct
incongruent_pointer_middle,22,184,2,107,14.3,36.05,0.02,0.57,100,729,Incorrect
incongruent_pointer_middle,22,185,1,106,38.84,23.37,0.04,0.37,106,670,Correct
incongruent_pointer_middle,22,186,1,106,59.48,42.91,0.07,0.67,106,1593,Correct
incongruent_pointer_middle,22,187,1,102,57.16,76.18,0.06,1.2,102,654,Correct
incongruent_pointer_middle,22,188,2,107,56.01,68.82,0.06,1.08,107,2187,Correct
incongruent_pointer_middle,22,189,1,102,34.94,46.98,0.04,0.74,102,1427,Correct
incongruent_pointer_middle,22,190,2,100,68.66,50.36,0.08,0.79,107,2295,Incorrect
incongruent_pointer_middle,22,191,2,107,36.69,55.61,0.04,0.87,100,1128,Incorrect
incongruent_pointer_middle,22,192,1,102,57.81,74.83,0.06,1.18,102,754,Correct
incongruent_pointer_middle,22,193,2,107,61.11,74.44,0.07,1.17,100,1060,Incorrect
incongruent_pointer_middle,22,194,1,106,71.71,49.13,0.08,0.77,102,1176,Incorrect
incongruent_pointer_middle,22,195,1,106,45.34,17.18,0.05,0.27,102,1263,Incorrect
incongruent_pointer_middle,22,196,1,106,53.95,25.25,0.06,0.4,102,1217,Incorrect
incongruent_pointer_middle,22,197,1,102,42.74,64.1,0.05,1.01,102,824,Correct
incongruent_pointer_middle,22,198,2,100,35.92,16.49,0.04,0.26,107,4608,Incorrect
incongruent_pointer_middle,22,199,1,106,41.98,17.88,0.05,0.28,102,798,Incorrect
incongruent_pointer_middle,22,200,1,106,53.2,30.83,0.06,0.48,106,1093,Correct
incongruent_pointer_middle,22,201,1,106,78.18,57.64,0.09,0.91,106,4357,Correct
incongruent_pointer_middle,22,202,2,107,66.54,79.41,0.07,1.25,107,1322,Correct
incongruent_pointer_middle,22,203,1,106,41.46,30.88,0.05,0.49,102,842,Incorrect
incongruent_pointer_middle,22,204,1,102,15.44,37.25,0.02,0.59,102,753,Correct
incongruent_pointer_middle,22,205,1,102,45.9,73.46,0.05,1.15,106,700,Incorrect
incongruent_pointer_middle,22,206,1,102,54.16,64.98,0.06,1.02,102,777,Correct
incongruent_pointer_middle,22,207,2,107,34.12,55.05,0.04,0.86,107,1877,Correct
incongruent_pointer_middle,22,208,1,106,45.15,37.56,0.05,0.59,106,650,Correct
incongruent_pointer_middle,22,209,2,107,27.44,43.3,0.03,0.68,107,1069,Correct
incongruent_pointer_middle,22,210,1,106,75.96,50.89,0.08,0.8,106,4007,Correct
incongruent_pointer_middle,22,211,1,106,84.39,66.49,0.09,1.04,106,3042,Correct
incongruent_pointer_middle,22,212,2,107,51.0,69.9,0.06,1.1,107,1069,Correct
incongruent_pointer_middle,22,213,1,106,78.88,64.66,0.09,1.02,102,601,Incorrect
incongruent_pointer_middle,22,214,2,107,40.0,47.91,0.04,0.75,100,557,Incorrect
incongruent_pointer_middle,22,215,1,106,48.5,33.9,0.05,0.53,106,891,Correct
incongruent_pointer_middle,22,216,2,107,14.49,31.78,0.02,0.5,100,5027,Incorrect
incongruent_pointer_middle,22,217,2,107,47.57,63.68,0.05,1.0,107,713,Correct
incongruent_pointer_middle,22,218,1,106,38.58,15.59,0.04,0.24,106,796,Correct
incongruent_pointer_middle,22,219,1,106,52.24,44.48,0.06,0.7,106,656,Correct
incongruent_pointer_middle,22,220,1,106,58.55,27.12,0.07,0.43,102,1038,Incorrect
incongruent_pointer_middle,22,221,1,106,69.92,40.46,0.08,0.64,106,625,Correct
incongruent_pointer_middle,22,222,1,106,58.73,45.14,0.07,0.71,106,5215,Correct
incongruent_pointer_middle,22,223,2,107,33.98,63.33,0.04,0.99,107,2431,Correct
incongruent_pointer_middle,22,224,2,100,60.02,45.34,0.07,0.71,107,1268,Incorrect
incongruent_pointer_middle,22,225,1,106,40.67,30.67,0.05,0.48,106,956,Correct
incongruent_pointer_middle,22,226,2,100,42.06,19.36,0.05,0.3,107,1103,Incorrect
incongruent_pointer_middle,22,227,1,106,69.36,54.9,0.08,0.86,106,480,Correct
incongruent_pointer_middle,22,228,1,106,82.01,65.83,0.09,1.03,106,688,Correct
incongruent_pointer_middle,22,229,1,106,79.11,59.26,0.09,0.93,106,1335,Correct
incongruent_pointer_middle,22,230,2,107,14.71,44.09,0.02,0.69,100,5965,Incorrect
incongruent_pointer_middle,22,231,2,100,83.46,58.47,0.09,0.92,107,932,Incorrect
incongruent_pointer_middle,22,232,2,107,33.61,60.27,0.04,0.95,107,2817,Correct
incongruent_pointer_middle,22,233,1,102,24.0,41.54,0.03,0.65,106,878,Incorrect
incongruent_pointer_middle,22,234,1,106,66.46,34.54,0.07,0.54,106,714,Correct
incongruent_pointer_middle,22,235,2,107,34.67,64.05,0.04,1.01,107,844,Correct
incongruent_pointer_middle,22,236,1,106,57.37,43.18,0.06,0.68,106,6323,Correct
incongruent_pointer_middle,22,237,2,100,67.15,35.82,0.08,0.56,107,712,Incorrect
incongruent_pointer_middle,22,238,1,106,49.55,39.86,0.06,0.63,106,1302,Correct
incongruent_pointer_middle,22,239,1,102,49.87,79.48,0.06,1.25,106,1527,Incorrect
incongruent_pointer_middle,22,240,2,100,46.07,19.96,0.05,0.31,107,779,Incorrect
incongruent_pointer_middle,22,241,1,106,36.15,21.42,0.04,0.34,106,4784,Correct
incongruent_pointer_middle,22,242,2,100,59.13,46.99,0.07,0.74,107,2058,Incorrect
incongruent_pointer_middle,22,243,1,102,54.57,61.76,0.06,0.97,106,1482,Incorrect
incongruent_pointer_middle,22,244,2,100,82.19,65.47,0.09,1.03,107,746,Incorrect
incongruent_pointer_middle,22,245,1,102,47.19,69.33,0.05,1.09,106,1485,Incorrect
incongruent_pointer_middle,22,246,1,106,63.42,54.04,0.07,0.85,102,2254,Incorrect
incongruent_pointer_middle,22,247,1,106,48.27,19.88,0.05,0.31,102,2785,Incorrect
incongruent_pointer_middle,22,248,2,100,53.59,34.97,0.06,0.55,107,2926,Incorrect
incongruent_pointer_middle,22,249,1,102,18.44,32.12,0.02,0.5,102,767,Correct
incongruent_pointer_middle,22,250,2,107,64.39,75.19,0.07,1.18,107,1351,Correct
incongruent_pointer_middle,22,251,2,107,29.75,48.63,0.03,0.76,107,1314,Correct
incongruent_pointer_middle,22,252,2,107,21.73,37.96,0.02,0.6,107,1188,Correct
incongruent_pointer_middle,22,253,2,107,60.17,80.17,0.07,1.26,100,3741,Incorrect
incongruent_pointer_middle,22,254,2,100,36.46,24.88,0.04,0.39,107,826,Incorrect
incongruent_pointer_middle,22,255,2,100,58.97,44.86,0.07,0.7,107,850,Incorrect
incongruent_pointer_middle,22,256,1,102,36.44,47.37,0.04,0.74,106,1131,Incorrect
incongruent_pointer_middle,22,257,1,102,33.76,42.22,0.04,0.66,102,2888,Correct
incongruent_pointer_middle,22,258,1,106,43.77,19.94,0.05,0.31,106,2570,Correct
incongruent_pointer_middle,22,259,1,102,54.86,65.09,0.06,1.02,102,662,Correct
incongruent_pointer_middle,22,260,1,102,40.35,52.83,0.05,0.83,102,1641,Incorrect
incongruent_pointer_middle,22,261,2,100,89.45,67.03,0.1,1.05,107,1447,Incorrect
incongruent_pointer_middle,22,262,2,100,74.9,59.11,0.08,0.93,100,3270,Correct
incongruent_pointer_middle,22,263,2,100,49.02,38.76,0.05,0.61,107,1119,Incorrect
incongruent_pointer_middle,22,264,2,100,60.03,48.9,0.07,0.77,100,1488,Correct
incongruent_pointer_middle,22,265,2,100,54.17,44.19,0.06,0.69,100,776,Correct
incongruent_pointer_middle,22,266,2,107,39.12,50.22,0.04,0.79,107,914,Correct
incongruent_pointer_middle,22,267,2,107,61.06,86.45,0.07,1.36,107,1481,Correct
incongruent_pointer_middle,22,268,1,102,43.71,67.16,0.05,1.05,102,946,Correct
incongruent_pointer_middle,22,269,2,100,71.16,50.46,0.08,0.79,100,705,Correct
incongruent_pointer_middle,22,270,2,100,88.13,64.49,0.1,1.01,100,876,Correct
incongruent_pointer_middle,22,271,2,100,81.91,65.73,0.09,1.03,100,546,Correct
incongruent_pointer_middle,22,272,2,107,27.1,46.96,0.03,0.74,100,889,Incorrect
incongruent_pointer_middle,22,273,2,107,46.41,59.32,0.05,0.93,100,1057,Incorrect
incongruent_pointer_middle,22,274,2,107,47.5,61.19,0.05,0.96,107,582,Correct
incongruent_pointer_middle,22,275,2,107,44.53,55.4,0.05,0.87,107,871,Correct
incongruent_pointer_middle,22,276,1,102,51.59,71.39,0.06,1.12,102,5963,Correct
incongruent_pointer_middle,22,277,1,106,79.87,48.89,0.09,0.77,106,1862,Correct
incongruent_pointer_middle,22,278,2,107,13.81,34.04,0.02,0.53,107,1315,Correct
incongruent_pointer_middle,22,279,2,100,64.92,39.93,0.07,0.63,100,3516,Correct
incongruent_pointer_middle,22,280,2,107,44.56,62.9,0.05,0.99,107,5927,Correct
incongruent_pointer_middle,22,281,1,102,41.63,51.64,0.05,0.81,102,3026,Correct
incongruent_pointer_middle,22,282,2,100,50.94,24.85,0.06,0.39,100,1269,Correct
incongruent_pointer_middle,22,283,1,106,82.27,63.32,0.09,0.99,106,2089,Correct
incongruent_pointer_middle,22,284,1,106,74.2,57.97,0.08,0.91,106,773,Correct
incongruent_pointer_middle,22,285,2,100,51.14,24.61,0.06,0.39,107,3406,Incorrect
incongruent_pointer_middle,22,286,2,107,68.14,84.43,0.08,1.33,107,862,Correct
incongruent_pointer_middle,22,287,1,106,59.63,38.2,0.07,0.6,106,727,Correct
incongruent_pointer_middle,22,288,2,100,37.3,19.97,0.04,0.31,107,4501,Incorrect
incongruent_pointer_middle,22,289,2,107,56.32,78.89,0.06,1.24,107,628,Correct
incongruent_pointer_middle,22,290,2,107,57.24,78.3,0.06,1.23,107,747,Correct
incongruent_pointer_middle,22,291,2,100,70.07,45.69,0.08,0.72,107,3865,Incorrect
incongruent_pointer_middle,22,292,1,102,24.74,37.12,0.03,0.58,102,852,Correct
incongruent_pointer_middle,22,293,2,107,63.03,82.68,0.07,1.3,107,585,Correct
incongruent_pointer_middle,22,294,1,102,56.33,78.53,0.06,1.23,106,354,Incorrect
incongruent_pointer_middle,22,295,1,102,28.73,60.2,0.03,0.95,102,585,Correct
incongruent_pointer_middle,22,296,2,107,60.29,81.03,0.07,1.27,107,1503,Correct
incongruent_pointer_middle,22,297,1,102,57.01,78.71,0.06,1.24,106,4798,Incorrect
incongruent_pointer_middle,22,298,1,102,53.98,67.62,0.06,1.06,102,1937,Correct
incongruent_pointer_middle,22,299,2,107,48.76,55.62,0.05,0.87,107,7789,Correct
incongruent_pointer_middle,22,300,2,100,83.9,66.19,0.09,1.04,100,680,Incorrect
incongruent_pointer_middle,22,301,1,106,85.57,68.61,0.1,1.08,106,497,Correct
incongruent_pointer_middle,22,302,2,100,43.19,21.46,0.05,0.34,107,699,Incorrect
incongruent_pointer_middle,22,303,1,102,52.8,80.75,0.06,1.27,106,581,Incorrect
incongruent_pointer_middle,22,304,1,102,48.11,69.05,0.05,1.08,102,807,Correct
incongruent_pointer_middle,22,305,2,107,43.35,74.98,0.05,1.18,107,968,Correct
incongruent_pointer_middle,22,306,2,107,31.26,56.42,0.03,0.89,100,784,Incorrect
incongruent_pointer_middle,22,307,2,107,51.1,70.32,0.06,1.1,100,956,Incorrect
incongruent_pointer_middle,22,308,1,102,43.81,64.0,0.05,1.01,102,1898,Correct
incongruent_pointer_middle,22,309,1,106,62.04,43.67,0.07,0.69,106,4354,Correct
incongruent_pointer_middle,22,310,2,107,12.51,39.39,0.01,0.62,107,1358,Correct
incongruent_pointer_middle,22,311,2,100,45.09,37.27,0.05,0.59,107,1420,Incorrect
incongruent_pointer_middle,22,312,2,100,58.59,40.32,0.07,0.63,107,5040,Incorrect
incongruent_pointer_middle,22,313,1,106,35.65,24.6,0.04,0.39,102,3519,Incorrect
incongruent_pointer_middle,22,314,1,106,62.1,31.34,0.07,0.49,106,1018,Correct
incongruent_pointer_middle,22,315,2,107,54.24,72.95,0.06,1.15,107,681,Correct
incongruent_pointer_middle,22,316,1,106,61.47,36.51,0.07,0.57,106,1896,Correct
incongruent_pointer_middle,22,317,2,100,64.64,36.41,0.07,0.57,107,661,Incorrect
incongruent_pointer_middle,22,318,2,107,55.21,69.41,0.06,1.09,107,747,Correct
incongruent_pointer_middle,22,319,2,107,36.35,48.66,0.04,0.76,107,3374,Correct
incongruent_pointer_middle,22,320,2,107,64.39,88.4,0.07,1.39,107,1318,Correct
incongruent_pointer_middle,22,321,2,100,52.41,29.07,0.06,0.46,100,3884,Correct
incongruent_pointer_middle,22,322,2,100,53.16,24.36,0.06,0.38,107,1109,Incorrect
incongruent_pointer_middle,22,323,2,100,67.74,57.43,0.08,0.9,100,1214,Correct
incongruent_pointer_middle,22,324,1,102,10.16,31.86,0.01,0.5,106,1079,Incorrect
incongruent_pointer_middle,22,325,2,107,21.95,48.62,0.02,0.76,107,1022,Correct
incongruent_pointer_middle,22,326,1,102,63.73,80.59,0.07,1.27,106,704,Incorrect
incongruent_pointer_middle,22,327,2,100,45.7,26.01,0.05,0.41,107,978,Incorrect
incongruent_pointer_middle,22,328,2,107,55.36,69.67,0.06,1.09,100,969,Incorrect
incongruent_pointer_middle,22,329,1,102,34.34,47.54,0.04,0.75,102,1263,Correct
incongruent_pointer_middle,22,330,1,106,63.25,54.87,0.07,0.86,106,437,Correct
incongruent_pointer_middle,22,331,1,106,65.96,51.05,0.07,0.8,102,885,Incorrect
incongruent_pointer_middle,22,332,2,107,33.11,42.31,0.04,0.66,107,2549,Correct
incongruent_pointer_middle,22,333,1,102,42.26,69.64,0.05,1.09,106,1891,Incorrect
incongruent_pointer_middle,22,334,2,107,31.49,43.4,0.04,0.68,107,1588,Correct
incongruent_pointer_middle,22,335,2,107,56.57,76.15,0.06,1.2,107,2534,Correct
incongruent_pointer_middle,22,336,2,100,65.76,47.92,0.07,0.75,107,3629,Incorrect
incongruent_pointer_middle,22,337,1,102,28.89,38.25,0.03,0.6,102,770,Correct
incongruent_pointer_middle,22,338,2,107,57.63,80.15,0.06,1.26,107,6742,Correct
incongruent_pointer_middle,22,339,1,106,89.64,65.71,0.1,1.03,106,1091,Correct
incongruent_pointer_middle,22,340,2,107,41.14,60.71,0.05,0.95,107,1305,Correct
incongruent_pointer_middle,22,341,1,106,60.03,31.05,0.07,0.49,106,674,Correct
incongruent_pointer_middle,22,342,2,100,60.5,32.5,0.07,0.51,107,1781,Incorrect
incongruent_pointer_middle,22,343,1,106,77.49,62.1,0.09,0.98,106,2678,Correct
incongruent_pointer_middle,22,344,1,106,56.61,31.21,0.06,0.49,106,1238,Correct
incongruent_pointer_middle,22,345,1,106,66.39,56.89,0.07,0.89,102,898,Incorrect
incongruent_pointer_middle,22,346,2,100,61.51,48.24,0.07,0.76,107,2145,Incorrect
incongruent_pointer_middle,22,347,2,107,62.27,72.18,0.07,1.13,100,774,Incorrect
incongruent_pointer_middle,22,348,2,107,47.81,54.78,0.05,0.86,107,579,Correct
incongruent_pointer_middle,22,349,2,107,39.76,52.33,0.04,0.82,107,1335,Correct
incongruent_pointer_middle,22,350,2,107,50.53,58.59,0.06,0.92,107,1065,Correct
incongruent_pointer_middle,22,351,1,106,52.17,40.21,0.06,0.63,102,1722,Incorrect
incongruent_pointer_middle,22,352,2,107,18.78,38.65,0.02,0.61,107,1149,Correct
incongruent_pointer_middle,22,353,2,107,20.21,39.53,0.02,0.62,107,1062,Correct
incongruent_pointer_middle,22,354,2,100,49.22,30.05,0.06,0.47,100,1322,Correct
incongruent_pointer_middle,22,355,2,107,23.31,50.97,0.03,0.8,107,802,Correct
incongruent_pointer_middle,22,356,2,107,56.11,74.36,0.06,1.17,107,3022,Correct
incongruent_pointer_middle,22,357,1,102,31.83,49.73,0.04,0.78,102,3240,Incorrect
incongruent_pointer_middle,22,358,2,107,12.89,34.75,0.01,0.55,107,862,Correct
incongruent_pointer_middle,22,359,1,106,70.06,37.21,0.08,0.58,102,887,Incorrect
incongruent_pointer_middle,22,360,1,106,78.79,59.58,0.09,0.94,106,1609,Correct
incongruent_pointer_middle,22,361,2,107,31.77,43.25,0.04,0.68,107,930,Correct
incongruent_pointer_middle,22,362,2,100,80.12,61.09,0.09,0.96,107,1460,Incorrect
incongruent_pointer_middle,22,363,1,106,35.91,22.21,0.04,0.35,102,2024,Incorrect
incongruent_pointer_middle,22,364,1,102,24.74,40.94,0.03,0.64,102,1873,Correct
incongruent_pointer_middle,22,365,1,102,43.08,69.85,0.05,1.1,102,1176,Correct
incongruent_pointer_middle,22,366,1,106,83.56,56.65,0.09,0.89,106,723,Correct
incongruent_pointer_middle,22,367,2,100,83.24,61.12,0.09,0.96,100,1172,Correct
incongruent_pointer_middle,22,368,2,107,43.68,75.34,0.05,1.18,107,2322,Correct
incongruent_pointer_middle,22,369,2,100,56.66,25.33,0.06,0.4,100,1069,Correct
incongruent_pointer_middle,22,370,1,102,42.98,50.87,0.05,0.8,102,1509,Correct
incongruent_pointer_middle,22,371,2,107,20.99,33.06,0.02,0.52,100,587,Incorrect
incongruent_pointer_middle,22,372,1,106,46.68,20.13,0.05,0.32,102,2140,Incorrect
incongruent_pointer_middle,22,373,2,100,59.75,40.67,0.07,0.64,100,1639,Correct
incongruent_pointer_middle,22,374,1,102,65.67,82.83,0.07,1.3,106,657,Incorrect
incongruent_pointer_middle,22,375,2,100,52.77,40.15,0.06,0.63,100,1239,Correct
incongruent_pointer_middle,22,376,1,106,39.52,17.75,0.04,0.28,102,918,Incorrect
incongruent_pointer_middle,22,377,2,107,11.69,37.38,0.01,0.59,107,973,Correct
incongruent_pointer_middle,22,378,2,107,40.12,47.34,0.04,0.74,100,1245,Incorrect
incongruent_pointer_middle,22,379,2,100,80.82,67.43,0.09,1.06,107,1088,Incorrect
incongruent_pointer_middle,22,380,2,107,32.65,58.72,0.04,0.92,100,654,Incorrect
incongruent_pointer_middle,22,381,1,106,39.4,28.33,0.04,0.44,102,1095,Incorrect
incongruent_pointer_middle,22,382,1,106,65.23,48.3,0.07,0.76,102,2591,Incorrect
incongruent_pointer_middle,22,383,1,106,79.73,49.77,0.09,0.78,106,506,Correct
incongruent_pointer_middle,22,384,1,106,77.49,57.79,0.09,0.91,106,627,Correct
incongruent_pointer_middle,22,385,1,102,60.96,83.72,0.07,1.31,106,2226,Incorrect
incongruent_pointer_middle,22,386,1,106,69.83,45.39,0.08,0.71,102,942,Incorrect
incongruent_pointer_middle,22,387,2,100,76.52,49.73,0.09,0.78,100,793,Correct
incongruent_pointer_middle,22,388,1,102,16.98,45.15,0.02,0.71,102,1011,Correct
incongruent_pointer_middle,22,389,2,107,53.98,83.47,0.06,1.31,100,1931,Incorrect
incongruent_pointer_middle,22,390,2,100,46.88,34.05,0.05,0.53,100,2525,Correct
incongruent_pointer_middle,22,391,1,106,57.17,38.29,0.06,0.6,106,1416,Correct
incongruent_pointer_middle,22,392,1,102,45.83,63.76,0.05,1.0,106,1536,Incorrect
incongruent_pointer_middle,22,393,1,102,25.04,36.09,0.03,0.57,102,1226,Correct
incongruent_pointer_middle,22,394,1,106,82.92,64.71,0.09,1.02,106,877,Correct
incongruent_pointer_middle,22,395,2,107,40.16,71.43,0.04,1.12,107,1139,Correct
incongruent_pointer_middle,22,396,1,102,18.44,35.3,0.02,0.55,102,642,Correct
incongruent_pointer_middle,22,397,2,100,37.0,12.92,0.04,0.2,100,1681,Correct
incongruent_pointer_middle,22,398,2,100,65.71,45.59,0.07,0.72,107,1275,Incorrect
