condition,subject,trial,sub_task,cat,x,y,xt,yt,resp,rt,fb
congruent_pointer_middle,33,0,2,100,48.38,69.6,0.05,1.09,100,1089,Correct
congruent_pointer_middle,33,1,2,107,69.93,49.72,0.08,0.78,107,876,Correct
congruent_pointer_middle,33,2,2,107,55.85,42.63,0.06,0.67,100,901,Incorrect
congruent_pointer_middle,33,3,2,107,51.41,44.18,0.06,0.69,100,971,Incorrect
congruent_pointer_middle,33,4,1,106,72.76,44.96,0.08,0.71,106,1438,Correct
congruent_pointer_middle,33,5,1,102,50.95,78.68,0.06,1.24,102,1235,Correct
congruent_pointer_middle,33,6,1,102,51.96,75.14,0.06,1.18,106,1070,Incorrect
congruent_pointer_middle,33,7,1,102,55.73,83.2,0.06,1.31,102,1024,Correct
congruent_pointer_middle,33,8,1,106,59.29,46.52,0.07,0.73,102,881,Incorrect
congruent_pointer_middle,33,9,2,107,73.39,43.12,0.08,0.68,107,847,Correct
congruent_pointer_middle,33,10,2,100,16.42,45.95,0.02,0.72,100,745,Correct
congruent_pointer_middle,33,11,2,100,19.47,43.73,0.02,0.69,100,718,Correct
congruent_pointer_middle,33,12,1,106,42.63,29.87,0.05,0.47,102,862,Incorrect
congruent_pointer_middle,33,13,2,100,57.57,85.49,0.06,1.34,100,3804,Correct
congruent_pointer_middle,33,14,2,100,39.06,64.17,0.04,1.01,107,1011,Incorrect
congruent_pointer_middle,33,15,2,100,27.11,44.25,0.03,0.7,100,760,Correct
congruent_pointer_middle,33,16,2,100,35.84,65.7,0.04,1.03,107,765,Incorrect
congruent_pointer_middle,33,17,1,106,59.39,34.94,0.07,0.55,106,1203,Correct
congruent_pointer_middle,33,18,2,107,55.1,29.07,0.06,0.46,100,709,Incorrect
congruent_pointer_middle,33,19,1,106,50.33,34.9,0.06,0.55,102,705,Incorrect
congruent_pointer_middle,33,20,1,102,29.09,43.69,0.03,0.69,102,730,Correct
congruent_pointer_middle,33,21,1,102,40.92,51.84,0.05,0.81,106,638,Incorrect
congruent_pointer_middle,33,22,2,100,57.46,84.4,0.06,1.33,107,1000,Incorrect
congruent_pointer_middle,33,23,2,107,40.64,18.94,0.05,0.3,100,840,Incorrect
congruent_pointer_middle,33,24,2,107,75.39,55.63,0.08,0.87,107,667,Correct
congruent_pointer_middle,33,25,2,107,78.63,62.78,0.09,0.99,107,572,Correct
congruent_pointer_middle,33,26,1,102,52.67,74.48,0.06,1.17,106,708,Incorrect
congruent_pointer_middle,33,27,2,100,29.79,56.14,0.03,0.88,100,792,Correct
congruent_pointer_middle,33,28,1,102,41.31,48.92,0.05,0.77,102,510,Correct
congruent_pointer_middle,33,29,2,107,37.79,17.36,0.04,0.27,100,635,Incorrect
congruent_pointer_middle,33,30,2,107,52.25,40.74,0.06,0.64,100,804,Incorrect
congruent_pointer_middle,33,31,1,106,54.36,38.07,0.06,0.6,106,646,Correct
congruent_pointer_middle,33,32,1,102,34.24,64.21,0.04,1.01,102,519,Correct
congruent_pointer_middle,33,33,2,107,54.97,25.38,0.06,0.4,107,766,Correct
congruent_pointer_middle,33,34,1,106,57.64,41.64,0.06,0.65,106,539,Correct
congruent_pointer_middle,33,35,2,107,72.76,61.83,0.08,0.97,107,561,Correct
congruent_pointer_middle,33,36,2,107,62.26,41.47,0.07,0.65,107,609,Correct
congruent_pointer_middle,33,37,2,107,61.56,40.45,0.07,0.64,107,786,Correct
congruent_pointer_middle,33,38,1,102,53.9,81.19,0.06,1.28,102,979,Correct
congruent_pointer_middle,33,39,1,106,63.17,48.55,0.07,0.76,102,926,Incorrect
congruent_pointer_middle,33,40,2,100,28.31,50.39,0.03,0.79,100,583,Correct
congruent_pointer_middle,33,41,1,106,78.02,61.34,0.09,0.96,106,560,Correct
congruent_pointer_middle,33,42,1,102,42.05,56.99,0.05,0.9,102,630,Correct
congruent_pointer_middle,33,43,2,100,63.04,81.06,0.07,1.27,107,1317,Incorrect
congruent_pointer_middle,33,44,2,100,24.69,54.7,0.03,0.86,100,593,Correct
congruent_pointer_middle,33,45,2,107,69.04,44.7,0.08,0.7,107,636,Correct
congruent_pointer_middle,33,46,1,102,54.69,68.94,0.06,1.08,106,773,Incorrect
congruent_pointer_middle,33,47,2,100,31.74,51.43,0.04,0.81,100,603,Correct
congruent_pointer_middle,33,48,2,107,37.65,17.49,0.04,0.27,107,1162,Correct
congruent_pointer_middle,33,49,1,106,51.71,31.41,0.06,0.49,102,884,Incorrect
congruent_pointer_middle,33,50,1,102,37.07,65.35,0.04,1.03,102,1040,Correct
congruent_pointer_middle,33,51,1,106,34.58,20.27,0.04,0.32,106,1293,Correct
congruent_pointer_middle,33,52,1,102,18.4,34.09,0.02,0.54,102,912,Correct
congruent_pointer_middle,33,53,2,107,55.56,44.58,0.06,0.7,100,1214,Incorrect
congruent_pointer_middle,33,54,2,100,54.52,62.28,0.06,0.98,100,744,Correct
congruent_pointer_middle,33,55,2,107,74.57,45.43,0.08,0.71,100,1036,Incorrect
congruent_pointer_middle,33,56,1,102,30.72,57.49,0.03,0.9,102,539,Correct
congruent_pointer_middle,33,57,1,106,40.27,18.05,0.05,0.28,106,798,Correct
congruent_pointer_middle,33,58,2,107,61.64,30.66,0.07,0.48,107,1182,Correct
congruent_pointer_middle,33,59,1,102,13.88,40.62,0.02,0.64,102,513,Correct
congruent_pointer_middle,33,60,2,107,57.18,37.79,0.06,0.59,100,1512,Incorrect
congruent_pointer_middle,33,61,1,106,54.9,37.54,0.06,0.59,102,1939,Incorrect
congruent_pointer_middle,33,62,2,107,30.65,13.14,0.03,0.21,100,1144,Incorrect
congruent_pointer_middle,33,63,1,102,25.02,51.54,0.03,0.81,102,866,Correct
congruent_pointer_middle,33,64,1,102,64.35,78.94,0.07,1.24,106,1042,Incorrect
congruent_pointer_middle,33,65,1,106,35.22,10.76,0.04,0.17,106,1343,Correct
congruent_pointer_middle,33,66,2,107,79.83,49.21,0.09,0.77,107,1615,Correct
congruent_pointer_middle,33,67,2,100,42.16,62.64,0.05,0.98,107,1188,Incorrect
congruent_pointer_middle,33,68,2,107,47.53,17.88,0.05,0.28,107,857,Correct
congruent_pointer_middle,33,69,2,107,79.19,59.99,0.09,0.94,100,1369,Incorrect
congruent_pointer_middle,33,70,1,102,37.1,48.31,0.04,0.76,102,912,Correct
congruent_pointer_middle,33,71,2,107,53.59,37.33,0.06,0.59,107,1059,Correct
congruent_pointer_middle,33,72,1,106,45.33,30.95,0.05,0.49,102,739,Incorrect
congruent_pointer_middle,33,73,2,107,81.52,60.4,0.09,0.95,100,793,Incorrect
congruent_pointer_middle,33,74,1,102,55.33,75.65,0.06,1.19,102,916,Correct
congruent_pointer_middle,33,75,1,106,33.35,22.02,0.04,0.35,106,683,Correct
congruent_pointer_middle,33,76,2,107,72.48,55.97,0.08,0.88,107,1402,Correct
congruent_pointer_middle,33,77,1,102,55.84,67.14,0.06,1.05,106,1146,Incorrect
congruent_pointer_middle,33,78,2,107,44.72,32.2,0.05,0.51,107,846,Correct
congruent_pointer_middle,33,79,2,107,59.14,38.7,0.07,0.61,100,1014,Incorrect
congruent_pointer_middle,33,80,1,102,53.13,77.94,0.06,1.22,102,1032,Correct
congruent_pointer_middle,33,81,2,107,81.72,58.83,0.09,0.92,100,801,Incorrect
congruent_pointer_middle,33,82,1,106,51.44,44.6,0.06,0.7,106,725,Correct
congruent_pointer_middle,33,83,1,102,67.67,85.9,0.08,1.35,102,676,Correct
congruent_pointer_middle,33,84,2,107,69.22,37.56,0.08,0.59,107,681,Correct
congruent_pointer_middle,33,85,2,107,79.75,59.35,0.09,0.93,107,807,Correct
congruent_pointer_middle,33,86,1,102,34.85,44.3,0.04,0.7,102,855,Correct
congruent_pointer_middle,33,87,1,106,69.2,37.98,0.08,0.6,102,674,Incorrect
congruent_pointer_middle,33,88,2,100,26.23,53.17,0.03,0.84,107,653,Incorrect
congruent_pointer_middle,33,89,2,107,54.34,26.81,0.06,0.42,107,887,Correct
congruent_pointer_middle,33,90,1,106,68.41,35.62,0.08,0.56,106,598,Correct
congruent_pointer_middle,33,91,1,106,33.89,21.19,0.04,0.33,106,960,Correct
congruent_pointer_middle,33,92,2,100,42.23,63.31,0.05,0.99,100,699,Correct
congruent_pointer_middle,33,93,1,106,57.4,39.35,0.06,0.62,102,886,Incorrect
congruent_pointer_middle,33,94,2,100,38.06,56.23,0.04,0.88,100,849,Correct
congruent_pointer_middle,33,95,1,102,41.66,70.42,0.05,1.11,106,679,Incorrect
congruent_pointer_middle,33,96,1,102,15.16,38.46,0.02,0.6,102,1037,Correct
congruent_pointer_middle,33,97,1,106,83.99,66.23,0.09,1.04,102,941,Incorrect
congruent_pointer_middle,33,98,2,100,63.69,85.58,0.07,1.34,100,837,Correct
congruent_pointer_middle,33,99,1,102,57.31,74.23,0.06,1.17,106,531,Incorrect
congruent_pointer_middle,33,100,1,102,24.74,35.93,0.03,0.56,106,1080,Incorrect
congruent_pointer_middle,33,101,1,106,67.06,43.19,0.08,0.68,102,613,Incorrect
congruent_pointer_middle,33,102,2,107,65.79,57.2,0.07,0.9,100,722,Incorrect
congruent_pointer_middle,33,103,1,102,51.55,82.32,0.06,1.29,106,941,Incorrect
congruent_pointer_middle,33,104,1,106,48.24,18.2,0.05,0.29,106,853,Correct
congruent_pointer_middle,33,105,1,106,55.31,46.26,0.06,0.73,106,841,Correct
congruent_pointer_middle,33,106,1,102,25.46,48.95,0.03,0.77,106,1114,Incorrect
congruent_pointer_middle,33,107,2,100,20.64,50.32,0.02,0.79,100,1006,Correct
congruent_pointer_middle,33,108,1,106,57.3,29.51,0.06,0.46,106,706,Correct
congruent_pointer_middle,33,109,1,102,41.65,57.77,0.05,0.91,102,1178,Correct
congruent_pointer_middle,33,110,1,106,80.66,65.31,0.09,1.03,102,1145,Incorrect
congruent_pointer_middle,33,111,2,100,40.52,52.24,0.05,0.82,107,769,Incorrect
congruent_pointer_middle,33,112,1,102,54.7,72.47,0.06,1.14,102,1110,Correct
congruent_pointer_middle,33,113,1,106,49.28,33.69,0.06,0.53,106,791,Correct
congruent_pointer_middle,33,114,1,102,42.14,64.66,0.05,1.02,102,774,Correct
congruent_pointer_middle,33,115,1,106,71.67,57.24,0.08,0.9,106,802,Correct
congruent_pointer_middle,33,116,1,102,36.02,45.68,0.04,0.72,102,758,Correct
congruent_pointer_middle,33,117,2,107,62.42,45.38,0.07,0.71,107,780,Correct
congruent_pointer_middle,33,118,1,106,41.76,27.91,0.05,0.44,106,883,Correct
congruent_pointer_middle,33,119,1,102,40.79,47.64,0.05,0.75,106,903,Incorrect
congruent_pointer_middle,33,120,1,102,15.0,42.69,0.02,0.67,102,818,Correct
congruent_pointer_middle,33,121,1,106,59.71,30.04,0.07,0.47,102,777,Incorrect
congruent_pointer_middle,33,122,2,107,61.24,49.29,0.07,0.77,100,982,Incorrect
congruent_pointer_middle,33,123,1,106,78.84,55.98,0.09,0.88,106,1281,Correct
congruent_pointer_middle,33,124,2,107,72.23,51.27,0.08,0.81,100,1426,Incorrect
congruent_pointer_middle,33,125,2,100,19.39,35.29,0.02,0.55,100,792,Correct
congruent_pointer_middle,33,126,1,106,53.78,43.8,0.06,0.69,102,771,Incorrect
congruent_pointer_middle,33,127,2,107,70.58,57.14,0.08,0.9,107,661,Correct
congruent_pointer_middle,33,128,1,106,66.91,58.68,0.07,0.92,106,604,Correct
congruent_pointer_middle,33,129,1,106,82.54,56.36,0.09,0.89,106,828,Correct
congruent_pointer_middle,33,130,2,107,71.72,47.35,0.08,0.74,107,755,Correct
congruent_pointer_middle,33,131,2,100,21.44,37.99,0.02,0.6,107,876,Incorrect
congruent_pointer_middle,33,132,2,100,15.93,43.73,0.02,0.69,100,881,Correct
congruent_pointer_middle,33,133,1,106,83.84,58.43,0.09,0.92,102,875,Incorrect
congruent_pointer_middle,33,134,2,100,14.63,33.8,0.02,0.53,100,696,Correct
congruent_pointer_middle,33,135,1,102,37.36,63.88,0.04,1.0,102,754,Correct
congruent_pointer_middle,33,136,2,100,43.27,71.12,0.05,1.12,100,842,Correct
congruent_pointer_middle,33,137,1,106,64.9,42.88,0.07,0.67,106,530,Correct
congruent_pointer_middle,33,138,1,106,63.85,53.38,0.07,0.84,102,1033,Incorrect
congruent_pointer_middle,33,139,1,102,62.08,75.08,0.07,1.18,106,1150,Incorrect
congruent_pointer_middle,33,140,2,107,61.06,49.54,0.07,0.78,100,793,Incorrect
congruent_pointer_middle,33,141,2,100,44.39,52.68,0.05,0.83,100,773,Correct
congruent_pointer_middle,33,142,2,107,86.37,60.81,0.1,0.96,107,590,Correct
congruent_pointer_middle,33,143,2,100,39.11,66.5,0.04,1.04,100,698,Correct
congruent_pointer_middle,33,144,2,107,59.62,32.14,0.07,0.5,107,855,Correct
congruent_pointer_middle,33,145,1,106,64.75,34.34,0.07,0.54,106,633,Correct
congruent_pointer_middle,33,146,2,100,38.0,51.43,0.04,0.81,100,861,Correct
congruent_pointer_middle,33,147,1,102,27.18,59.98,0.03,0.94,102,513,Correct
congruent_pointer_middle,33,148,2,107,41.79,29.59,0.05,0.46,107,1220,Correct
congruent_pointer_middle,33,149,1,102,17.28,41.19,0.02,0.65,102,814,Correct
congruent_pointer_middle,33,150,2,100,67.38,88.7,0.08,1.39,100,841,Correct
congruent_pointer_middle,33,151,2,107,36.12,11.83,0.04,0.19,107,1152,Correct
congruent_pointer_middle,33,152,2,107,58.78,46.52,0.07,0.73,100,1766,Incorrect
congruent_pointer_middle,33,153,2,107,53.94,39.97,0.06,0.63,107,622,Correct
congruent_pointer_middle,33,154,2,100,56.31,83.04,0.06,1.3,100,947,Correct
congruent_pointer_middle,33,155,1,106,37.37,21.21,0.04,0.33,106,1059,Correct
congruent_pointer_middle,33,156,1,106,63.54,43.45,0.07,0.68,106,583,Correct
congruent_pointer_middle,33,157,2,100,26.01,58.89,0.03,0.93,100,813,Correct
congruent_pointer_middle,33,158,1,102,29.86,60.34,0.03,0.95,102,515,Correct
congruent_pointer_middle,33,159,2,100,52.61,79.63,0.06,1.25,107,854,Incorrect
congruent_pointer_middle,33,160,2,100,34.35,60.83,0.04,0.96,100,754,Correct
congruent_pointer_middle,33,161,2,100,37.13,44.53,0.04,0.7,107,1016,Incorrect
congruent_pointer_middle,33,162,2,107,81.52,53.74,0.09,0.84,107,973,Correct
congruent_pointer_middle,33,163,2,107,85.37,69.14,0.1,1.09,107,1543,Correct
congruent_pointer_middle,33,164,1,106,65.5,56.68,0.07,0.89,106,859,Correct
congruent_pointer_middle,33,165,2,107,55.6,44.21,0.06,0.69,107,846,Correct
congruent_pointer_middle,33,166,1,102,26.16,56.65,0.03,0.89,102,785,Correct
congruent_pointer_middle,33,167,2,100,29.36,61.13,0.03,0.96,100,470,Correct
congruent_pointer_middle,33,168,1,102,32.87,43.42,0.04,0.68,102,837,Correct
congruent_pointer_middle,33,169,2,100,45.15,64.13,0.05,1.01,100,1362,Correct
congruent_pointer_middle,33,170,1,102,25.82,45.43,0.03,0.71,102,748,Correct
congruent_pointer_middle,33,171,1,102,38.18,70.99,0.04,1.12,102,701,Correct
congruent_pointer_middle,33,172,1,102,53.49,65.19,0.06,1.02,102,704,Correct
congruent_pointer_middle,33,173,1,102,35.03,48.36,0.04,0.76,102,556,Correct
congruent_pointer_middle,33,174,1,106,53.24,44.01,0.06,0.69,102,672,Incorrect
congruent_pointer_middle,33,175,2,100,59.86,82.34,0.07,1.29,100,785,Correct
congruent_pointer_middle,33,176,2,100,49.38,60.57,0.06,0.95,100,891,Correct
congruent_pointer_middle,33,177,2,107,54.97,43.94,0.06,0.69,107,653,Correct
congruent_pointer_middle,33,178,1,102,50.59,62.05,0.06,0.97,106,714,Incorrect
congruent_pointer_middle,33,179,1,106,36.51,19.18,0.04,0.3,106,637,Correct
congruent_pointer_middle,33,180,1,106,53.7,22.56,0.06,0.35,106,813,Correct
congruent_pointer_middle,33,181,2,107,52.53,22.79,0.06,0.36,107,546,Correct
congruent_pointer_middle,33,182,2,107,57.46,32.02,0.06,0.5,107,545,Correct
congruent_pointer_middle,33,183,2,107,34.67,15.26,0.04,0.24,107,548,Correct
congruent_pointer_middle,33,184,1,102,27.61,59.03,0.03,0.93,102,610,Correct
congruent_pointer_middle,33,185,1,106,46.89,27.7,0.05,0.44,102,792,Incorrect
congruent_pointer_middle,33,186,2,107,53.47,44.91,0.06,0.71,107,1016,Correct
congruent_pointer_middle,33,187,2,107,58.25,42.56,0.07,0.67,107,1865,Correct
congruent_pointer_middle,33,188,2,107,87.79,68.71,0.1,1.08,100,1028,Incorrect
congruent_pointer_middle,33,189,2,100,44.37,57.21,0.05,0.9,107,1617,Incorrect
congruent_pointer_middle,33,190,2,107,66.36,37.24,0.07,0.59,107,1147,Correct
congruent_pointer_middle,33,191,2,107,76.36,50.53,0.09,0.79,107,821,Correct
congruent_pointer_middle,33,192,2,107,74.72,57.17,0.08,0.9,107,648,Correct
congruent_pointer_middle,33,193,1,102,46.66,55.07,0.05,0.86,106,1356,Incorrect
congruent_pointer_middle,33,194,1,106,38.65,13.38,0.04,0.21,102,537,Incorrect
congruent_pointer_middle,33,195,1,106,54.57,38.35,0.06,0.6,102,1245,Incorrect
congruent_pointer_middle,33,196,1,102,36.9,44.45,0.04,0.7,102,1258,Correct
congruent_pointer_middle,33,197,2,100,15.67,38.57,0.02,0.61,100,693,Correct
congruent_pointer_middle,33,198,1,102,58.79,79.08,0.07,1.24,106,807,Incorrect
congruent_pointer_middle,33,199,1,106,49.0,33.4,0.05,0.52,106,988,Correct
congruent_pointer_middle,33,200,2,100,41.11,57.1,0.05,0.9,100,1820,Correct
congruent_pointer_middle,33,201,2,107,46.83,22.95,0.05,0.36,107,818,Correct
congruent_pointer_middle,33,202,2,100,12.84,36.57,0.01,0.57,100,646,Correct
congruent_pointer_middle,33,203,2,100,13.22,34.78,0.01,0.55,100,466,Correct
congruent_pointer_middle,33,204,2,100,37.37,63.39,0.04,1.0,100,1564,Correct
congruent_pointer_middle,33,205,2,107,57.51,45.98,0.06,0.72,107,3163,Correct
congruent_pointer_middle,33,206,2,100,29.18,53.45,0.03,0.84,100,1479,Correct
congruent_pointer_middle,33,207,1,102,43.25,64.87,0.05,1.02,102,907,Correct
congruent_pointer_middle,33,208,2,107,79.69,51.84,0.09,0.81,107,2171,Correct
congruent_pointer_middle,33,209,2,100,21.91,40.81,0.02,0.64,100,532,Correct
congruent_pointer_middle,33,210,2,107,59.1,50.52,0.07,0.79,107,594,Correct
congruent_pointer_middle,33,211,2,107,76.25,48.75,0.09,0.77,107,1091,Correct
congruent_pointer_middle,33,212,2,107,84.75,61.51,0.09,0.97,107,551,Correct
congruent_pointer_middle,33,213,1,106,40.72,31.82,0.05,0.5,102,963,Incorrect
congruent_pointer_middle,33,214,1,106,83.05,54.23,0.09,0.85,106,651,Correct
congruent_pointer_middle,33,215,2,107,51.93,37.16,0.06,0.58,107,2138,Correct
congruent_pointer_middle,33,216,1,102,64.3,82.91,0.07,1.3,102,707,Correct
congruent_pointer_middle,33,217,1,106,62.21,43.32,0.07,0.68,106,752,Correct
congruent_pointer_middle,33,218,1,106,88.09,67.77,0.1,1.06,106,735,Correct
congruent_pointer_middle,33,219,2,100,60.48,71.07,0.07,1.12,100,1894,Correct
congruent_pointer_middle,33,220,2,100,35.13,59.14,0.04,0.93,107,1116,Incorrect
congruent_pointer_middle,33,221,2,100,64.97,83.64,0.07,1.31,100,768,Correct
congruent_pointer_middle,33,222,2,107,43.41,15.38,0.05,0.24,107,1720,Correct
congruent_pointer_middle,33,223,1,102,64.8,76.32,0.07,1.2,102,1216,Correct
congruent_pointer_middle,33,224,2,107,53.74,36.49,0.06,0.57,107,643,Correct
congruent_pointer_middle,33,225,1,106,56.37,35.4,0.06,0.56,106,1083,Correct
congruent_pointer_middle,33,226,2,100,49.23,71.72,0.06,1.13,100,1085,Correct
congruent_pointer_middle,33,227,2,100,34.84,55.05,0.04,0.86,107,1097,Incorrect
congruent_pointer_middle,33,228,1,106,75.3,49.26,0.08,0.77,102,1014,Incorrect
congruent_pointer_middle,33,229,2,100,45.89,73.07,0.05,1.15,100,1156,Correct
congruent_pointer_middle,33,230,2,107,77.76,65.72,0.09,1.03,107,576,Correct
congruent_pointer_middle,33,231,2,100,37.95,68.63,0.04,1.08,100,801,Correct
congruent_pointer_middle,33,232,2,107,40.36,15.03,0.05,0.24,107,762,Correct
congruent_pointer_middle,33,233,1,106,54.57,25.03,0.06,0.39,106,827,Correct
congruent_pointer_middle,33,234,1,102,58.51,77.72,0.07,1.22,102,891,Correct
congruent_pointer_middle,33,235,2,107,72.32,40.26,0.08,0.63,107,1684,Correct
congruent_pointer_middle,33,236,1,106,65.95,47.82,0.07,0.75,106,1170,Correct
congruent_pointer_middle,33,237,2,100,28.63,43.28,0.03,0.68,100,850,Correct
congruent_pointer_middle,33,238,2,100,60.89,76.7,0.07,1.2,100,947,Correct
congruent_pointer_middle,33,239,2,100,58.38,84.17,0.07,1.32,100,949,Correct
congruent_pointer_middle,33,240,2,100,20.38,43.48,0.02,0.68,100,811,Correct
congruent_pointer_middle,33,241,1,106,75.43,42.94,0.08,0.67,106,1427,Correct
congruent_pointer_middle,33,242,2,100,48.55,64.55,0.05,1.01,100,716,Correct
congruent_pointer_middle,33,243,1,102,55.02,82.39,0.06,1.29,102,631,Correct
congruent_pointer_middle,33,244,1,106,74.3,44.2,0.08,0.69,106,763,Correct
congruent_pointer_middle,33,245,2,100,29.64,49.36,0.03,0.78,100,1327,Correct
congruent_pointer_middle,33,246,1,102,17.0,47.22,0.02,0.74,102,596,Correct
congruent_pointer_middle,33,247,2,107,67.43,56.68,0.08,0.89,100,1205,Incorrect
congruent_pointer_middle,33,248,2,100,17.1,36.71,0.02,0.58,100,514,Correct
congruent_pointer_middle,33,249,2,100,49.93,73.71,0.06,1.16,100,2145,Correct
congruent_pointer_middle,33,250,2,100,41.82,62.87,0.05,0.99,100,1117,Correct
congruent_pointer_middle,33,251,2,100,55.7,66.59,0.06,1.05,100,941,Correct
congruent_pointer_middle,33,252,2,100,37.49,55.05,0.04,0.86,100,952,Correct
congruent_pointer_middle,33,253,2,100,41.56,50.83,0.05,0.8,107,1057,Incorrect
congruent_pointer_middle,33,254,2,100,16.63,34.85,0.02,0.55,100,704,Correct
congruent_pointer_middle,33,255,2,100,22.11,36.42,0.02,0.57,100,483,Correct
congruent_pointer_middle,33,256,1,102,64.79,81.1,0.07,1.27,102,952,Correct
congruent_pointer_middle,33,257,1,102,20.37,41.98,0.02,0.66,102,496,Correct
congruent_pointer_middle,33,258,2,107,60.73,40.72,0.07,0.64,107,976,Correct
congruent_pointer_middle,33,259,2,107,88.71,63.4,0.1,1.0,107,1342,Correct
congruent_pointer_middle,33,260,2,100,31.75,61.0,0.04,0.96,100,832,Correct
congruent_pointer_middle,33,261,1,102,30.52,56.82,0.03,0.89,102,680,Correct
congruent_pointer_middle,33,262,2,100,68.07,85.95,0.08,1.35,100,879,Correct
congruent_pointer_middle,33,263,2,100,67.47,86.56,0.08,1.36,100,1291,Correct
congruent_pointer_middle,33,264,2,107,46.84,21.26,0.05,0.33,107,2670,Correct
congruent_pointer_middle,33,265,2,100,17.87,31.73,0.02,0.5,100,569,Correct
congruent_pointer_middle,33,266,1,102,23.91,48.51,0.03,0.76,102,736,Correct
congruent_pointer_middle,33,267,2,100,42.56,69.81,0.05,1.1,100,1072,Correct
congruent_pointer_middle,33,268,2,100,61.15,72.64,0.07,1.14,100,591,Correct
congruent_pointer_middle,33,269,2,107,49.39,24.43,0.06,0.38,107,1456,Correct
congruent_pointer_middle,33,270,1,106,50.01,29.25,0.06,0.46,106,895,Correct
congruent_pointer_middle,33,271,1,102,35.91,58.78,0.04,0.92,102,639,Correct
congruent_pointer_middle,33,272,1,102,44.59,63.04,0.05,0.99,102,582,Correct
congruent_pointer_middle,33,273,1,102,49.99,65.19,0.06,1.02,102,1636,Correct
congruent_pointer_middle,33,274,2,100,38.39,61.82,0.04,0.97,100,805,Correct
congruent_pointer_middle,33,275,1,102,17.89,40.28,0.02,0.63,102,667,Correct
congruent_pointer_middle,33,276,1,102,36.03,64.68,0.04,1.02,102,830,Correct
congruent_pointer_middle,33,277,2,107,69.14,54.23,0.08,0.85,107,709,Correct
congruent_pointer_middle,33,278,1,102,60.02,70.61,0.07,1.11,102,2078,Correct
congruent_pointer_middle,33,279,1,102,37.17,50.42,0.04,0.79,102,714,Correct
congruent_pointer_middle,33,280,1,106,38.45,13.97,0.04,0.22,106,816,Correct
congruent_pointer_middle,33,281,2,100,32.89,62.26,0.04,0.98,100,1159,Correct
congruent_pointer_middle,33,282,1,102,35.34,48.09,0.04,0.76,102,758,Correct
congruent_pointer_middle,33,283,2,107,60.24,46.02,0.07,0.72,107,1170,Correct
congruent_pointer_middle,33,284,2,107,52.25,28.09,0.06,0.44,107,747,Correct
congruent_pointer_middle,33,285,2,107,42.91,21.33,0.05,0.34,100,1473,Incorrect
congruent_pointer_middle,33,286,1,102,31.7,50.66,0.04,0.8,102,975,Correct
congruent_pointer_middle,33,287,1,106,39.1,26.27,0.04,0.41,106,918,Correct
congruent_pointer_middle,33,288,1,102,45.29,63.65,0.05,1.0,102,772,Correct
congruent_pointer_middle,33,289,1,106,37.11,20.1,0.04,0.32,106,605,Correct
congruent_pointer_middle,33,290,2,100,55.22,82.97,0.06,1.3,100,758,Correct
congruent_pointer_middle,33,291,2,100,25.09,45.37,0.03,0.71,100,1437,Correct
congruent_pointer_middle,33,292,1,102,18.42,39.59,0.02,0.62,102,673,Correct
congruent_pointer_middle,33,293,1,102,18.15,34.19,0.02,0.54,102,448,Correct
congruent_pointer_middle,33,294,2,100,28.89,52.96,0.03,0.83,100,819,Correct
congruent_pointer_middle,33,295,2,107,65.39,55.93,0.07,0.88,100,675,Incorrect
congruent_pointer_middle,33,296,2,107,54.54,28.48,0.06,0.45,107,1841,Correct
congruent_pointer_middle,33,297,1,102,33.22,46.69,0.04,0.73,102,1280,Correct
congruent_pointer_middle,33,298,2,107,63.89,47.84,0.07,0.75,107,773,Correct
congruent_pointer_middle,33,299,1,102,36.59,56.97,0.04,0.89,102,910,Correct
congruent_pointer_middle,33,300,2,100,47.13,75.4,0.05,1.18,100,906,Correct
congruent_pointer_middle,33,301,1,106,65.04,48.53,0.07,0.76,102,1821,Incorrect
congruent_pointer_middle,33,302,1,106,62.61,48.89,0.07,0.77,106,2319,Correct
congruent_pointer_middle,33,303,2,100,50.6,79.57,0.06,1.25,100,645,Correct
congruent_pointer_middle,33,304,2,107,49.35,24.59,0.06,0.39,107,859,Correct
congruent_pointer_middle,33,305,1,106,63.66,52.07,0.07,0.82,106,2097,Correct
congruent_pointer_middle,33,306,2,107,43.78,21.6,0.05,0.34,100,1489,Incorrect
congruent_pointer_middle,33,307,1,106,70.55,51.11,0.08,0.8,106,1368,Correct
congruent_pointer_middle,33,308,2,100,38.73,63.98,0.04,1.01,100,523,Correct
congruent_pointer_middle,33,309,2,107,74.54,59.97,0.08,0.94,107,748,Correct
congruent_pointer_middle,33,310,2,100,61.54,80.14,0.07,1.26,100,1546,Correct
congruent_pointer_middle,33,311,1,102,13.21,31.55,0.01,0.5,102,914,Correct
congruent_pointer_middle,33,312,2,100,30.18,60.82,0.03,0.96,100,795,Correct
congruent_pointer_middle,33,313,1,102,28.62,61.4,0.03,0.96,102,862,Correct
congruent_pointer_middle,33,314,2,107,51.59,33.6,0.06,0.53,107,1338,Correct
congruent_pointer_middle,33,315,2,107,46.98,20.93,0.05,0.33,107,1036,Correct
congruent_pointer_middle,33,316,2,107,38.93,17.85,0.04,0.28,107,561,Correct
congruent_pointer_middle,33,317,1,102,42.76,52.8,0.05,0.83,106,3466,Incorrect
congruent_pointer_middle,33,318,1,102,39.24,64.89,0.04,1.02,102,1238,Correct
congruent_pointer_middle,33,319,1,102,49.04,67.89,0.05,1.07,102,705,Correct
congruent_pointer_middle,33,320,2,107,83.63,62.69,0.09,0.98,100,1136,Incorrect
congruent_pointer_middle,33,321,1,106,64.12,44.64,0.07,0.7,106,875,Correct
congruent_pointer_middle,33,322,2,100,21.53,52.37,0.02,0.82,100,560,Correct
congruent_pointer_middle,33,323,2,100,39.44,68.6,0.04,1.08,100,3822,Correct
congruent_pointer_middle,33,324,2,100,24.12,52.47,0.03,0.82,100,1010,Correct
congruent_pointer_middle,33,325,2,100,36.17,68.77,0.04,1.08,100,481,Correct
congruent_pointer_middle,33,326,1,102,39.11,65.94,0.04,1.04,102,779,Correct
congruent_pointer_middle,33,327,2,107,54.8,28.36,0.06,0.45,107,627,Incorrect
congruent_pointer_middle,33,328,1,102,25.94,48.72,0.03,0.77,102,641,Correct
congruent_pointer_middle,33,329,1,106,47.84,39.3,0.05,0.62,102,2784,Incorrect
congruent_pointer_middle,33,330,1,106,43.69,23.71,0.05,0.37,106,548,Correct
congruent_pointer_middle,33,331,2,107,43.15,28.09,0.05,0.44,107,837,Correct
congruent_pointer_middle,33,332,2,107,85.02,58.8,0.1,0.92,107,1117,Correct
congruent_pointer_middle,33,333,1,106,50.8,19.51,0.06,0.31,106,860,Correct
congruent_pointer_middle,33,334,2,100,25.37,40.7,0.03,0.64,100,564,Correct
congruent_pointer_middle,33,335,1,102,38.32,62.93,0.04,0.99,102,1199,Correct
congruent_pointer_middle,33,336,2,107,40.6,16.53,0.05,0.26,107,520,Correct
congruent_pointer_middle,33,337,2,100,35.3,54.46,0.04,0.86,107,2164,Incorrect
congruent_pointer_middle,33,338,2,100,34.25,49.7,0.04,0.78,100,983,Correct
congruent_pointer_middle,33,339,1,106,45.62,26.42,0.05,0.41,106,2310,Correct
congruent_pointer_middle,33,340,1,106,39.83,21.52,0.04,0.34,106,492,Correct
congruent_pointer_middle,33,341,1,106,64.27,42.9,0.07,0.67,106,446,Correct
congruent_pointer_middle,33,342,2,107,87.01,68.17,0.1,1.07,107,505,Correct
congruent_pointer_middle,33,343,2,107,62.74,32.2,0.07,0.51,107,720,Correct
congruent_pointer_middle,33,344,1,106,85.14,56.06,0.1,0.88,106,737,Correct
congruent_pointer_middle,33,345,1,102,14.92,33.07,0.02,0.52,102,1224,Correct
congruent_pointer_middle,33,346,1,106,40.48,16.87,0.05,0.27,106,887,Correct
congruent_pointer_middle,33,347,2,100,12.51,39.07,0.01,0.61,100,523,Correct
congruent_pointer_middle,33,348,2,107,77.91,50.08,0.09,0.79,107,1469,Correct
congruent_pointer_middle,33,349,2,107,74.38,54.76,0.08,0.86,107,1422,Correct
congruent_pointer_middle,33,350,2,100,48.38,74.11,0.05,1.16,100,940,Correct
congruent_pointer_middle,33,351,1,106,78.26,58.74,0.09,0.92,106,754,Correct
congruent_pointer_middle,33,352,2,107,48.76,34.17,0.05,0.54,107,676,Correct
congruent_pointer_middle,33,353,2,100,49.79,71.88,0.06,1.13,100,730,Correct
congruent_pointer_middle,33,354,2,100,51.58,77.0,0.06,1.21,100,609,Correct
congruent_pointer_middle,33,355,1,102,49.65,65.83,0.06,1.03,102,986,Correct
congruent_pointer_middle,33,356,2,107,44.43,30.23,0.05,0.47,107,696,Correct
congruent_pointer_middle,33,357,1,102,32.54,50.28,0.04,0.79,106,710,Incorrect
congruent_pointer_middle,33,358,2,100,23.43,44.28,0.03,0.7,100,682,Correct
congruent_pointer_middle,33,359,1,102,54.4,76.17,0.06,1.2,102,950,Correct
congruent_pointer_middle,33,360,1,102,42.7,52.51,0.05,0.82,106,1111,Incorrect
congruent_pointer_middle,33,361,1,106,76.96,62.02,0.09,0.97,106,688,Correct
congruent_pointer_middle,33,362,2,107,64.0,36.0,0.07,0.57,107,1575,Correct
congruent_pointer_middle,33,363,1,106,47.09,18.9,0.05,0.3,106,1565,Correct
congruent_pointer_middle,33,364,2,100,36.49,52.12,0.04,0.82,100,1243,Correct
congruent_pointer_middle,33,365,2,107,43.48,23.45,0.05,0.37,107,609,Correct
congruent_pointer_middle,33,366,1,102,59.95,75.17,0.07,1.18,102,485,Correct
congruent_pointer_middle,33,367,1,106,44.44,21.01,0.05,0.33,106,439,Correct
congruent_pointer_middle,33,368,1,106,50.86,30.71,0.06,0.48,106,686,Correct
congruent_pointer_middle,33,369,1,102,54.57,71.68,0.06,1.13,102,1307,Correct
congruent_pointer_middle,33,370,2,107,74.69,52.22,0.08,0.82,107,1259,Correct
congruent_pointer_middle,33,371,1,106,44.1,25.67,0.05,0.4,106,878,Correct
congruent_pointer_middle,33,372,2,100,57.75,81.05,0.06,1.27,100,1161,Correct
congruent_pointer_middle,33,373,2,107,83.57,65.84,0.09,1.03,107,1215,Correct
congruent_pointer_middle,33,374,1,102,39.61,56.73,0.04,0.89,102,491,Correct
congruent_pointer_middle,33,375,1,102,61.84,87.59,0.07,1.38,102,634,Correct
congruent_pointer_middle,33,376,2,107,59.17,36.26,0.07,0.57,107,807,Correct
congruent_pointer_middle,33,377,2,107,77.09,60.96,0.09,0.96,107,607,Correct
congruent_pointer_middle,33,378,1,102,18.48,42.57,0.02,0.67,102,533,Correct
congruent_pointer_middle,33,379,1,106,34.84,19.56,0.04,0.31,102,491,Incorrect
congruent_pointer_middle,33,380,2,107,64.77,54.77,0.07,0.86,107,736,Correct
congruent_pointer_middle,33,381,2,107,49.81,26.91,0.06,0.42,107,864,Correct
congruent_pointer_middle,33,382,2,100,39.8,60.75,0.04,0.95,107,801,Incorrect
congruent_pointer_middle,33,383,2,100,30.07,55.57,0.03,0.87,100,571,Correct
congruent_pointer_middle,33,384,1,102,53.53,61.28,0.06,0.96,102,1000,Correct
congruent_pointer_middle,33,385,1,106,71.77,51.02,0.08,0.8,106,717,Correct
congruent_pointer_middle,33,386,2,107,50.38,39.85,0.06,0.63,107,859,Correct
congruent_pointer_middle,33,387,2,107,83.59,57.73,0.09,0.91,107,612,Correct
congruent_pointer_middle,33,388,2,100,50.87,75.89,0.06,1.19,100,712,Correct
congruent_pointer_middle,33,389,2,107,73.03,40.18,0.08,0.63,107,767,Correct
congruent_pointer_middle,33,390,1,106,58.91,47.5,0.07,0.75,102,948,Incorrect
congruent_pointer_middle,33,391,2,107,39.26,13.95,0.04,0.22,100,690,Incorrect
congruent_pointer_middle,33,392,2,100,25.3,55.81,0.03,0.88,100,627,Correct
congruent_pointer_middle,33,393,1,102,28.87,49.8,0.03,0.78,102,598,Correct
congruent_pointer_middle,33,394,1,102,50.14,58.92,0.06,0.93,106,1418,Incorrect
congruent_pointer_middle,33,395,2,100,40.93,61.31,0.05,0.96,100,865,Correct
congruent_pointer_middle,33,396,1,106,58.67,51.18,0.07,0.8,106,666,Correct
congruent_pointer_middle,33,397,1,106,87.54,66.89,0.1,1.05,106,697,Correct
congruent_pointer_middle,33,398,2,100,36.95,57.43,0.04,0.9,100,599,Correct
