condition,subject,trial,sub_task,cat,x,y,xt,yt,resp,rt,fb
congruent_pinky_thumb,15,0,1,99,20.51,34.0,0.02,0.53,109,2269,Incorrect
congruent_pinky_thumb,15,1,2,113,47.61,59.92,0.05,0.94,113,1552,Correct
congruent_pinky_thumb,15,2,1,109,52.58,40.15,0.06,0.63,99,987,Incorrect
congruent_pinky_thumb,15,3,1,109,39.07,20.99,0.04,0.33,109,747,Correct
congruent_pinky_thumb,15,4,2,112,66.77,50.82,0.07,0.8,112,1115,Correct
congruent_pinky_thumb,15,5,1,99,53.17,83.18,0.06,1.31,109,896,Incorrect
congruent_pinky_thumb,15,6,1,109,40.06,19.11,0.04,0.3,109,1074,Correct
congruent_pinky_thumb,15,7,2,112,76.81,49.46,0.09,0.78,112,1125,Correct
congruent_pinky_thumb,15,8,2,112,34.7,19.15,0.04,0.3,112,1123,Correct
congruent_pinky_thumb,15,9,1,99,44.6,54.9,0.05,0.86,99,1274,Correct
congruent_pinky_thumb,15,10,1,99,49.76,77.36,0.06,1.22,109,905,Incorrect
congruent_pinky_thumb,15,11,1,99,36.13,44.97,0.04,0.71,109,923,Incorrect
congruent_pinky_thumb,15,12,1,109,41.6,23.23,0.05,0.36,109,1041,Correct
congruent_pinky_thumb,15,13,1,109,39.3,13.93,0.04,0.22,99,993,Incorrect
congruent_pinky_thumb,15,14,2,112,44.16,33.96,0.05,0.53,112,1048,Correct
congruent_pinky_thumb,15,15,2,113,34.27,53.27,0.04,0.84,112,943,Incorrect
congruent_pinky_thumb,15,16,2,112,70.35,60.42,0.08,0.95,113,1664,Incorrect
congruent_pinky_thumb,15,17,2,113,15.66,38.83,0.02,0.61,112,1234,Incorrect
congruent_pinky_thumb,15,18,1,109,50.59,32.95,0.06,0.52,109,1037,Correct
congruent_pinky_thumb,15,19,1,99,47.96,74.72,0.05,1.17,99,940,Correct
congruent_pinky_thumb,15,20,1,109,64.7,42.43,0.07,0.67,99,2119,Incorrect
congruent_pinky_thumb,15,21,2,112,46.25,37.94,0.05,0.6,112,1333,Correct
congruent_pinky_thumb,15,22,1,109,82.98,60.52,0.09,0.95,109,3825,Correct
congruent_pinky_thumb,15,23,2,113,42.72,61.09,0.05,0.96,112,1443,Incorrect
congruent_pinky_thumb,15,24,2,113,67.64,87.5,0.08,1.37,113,917,Correct
congruent_pinky_thumb,15,25,2,112,56.6,27.37,0.06,0.43,112,1226,Correct
congruent_pinky_thumb,15,26,2,112,65.21,39.9,0.07,0.63,112,1038,Correct
congruent_pinky_thumb,15,27,1,109,75.94,59.7,0.08,0.94,109,1694,Correct
congruent_pinky_thumb,15,28,2,113,51.63,66.56,0.06,1.05,113,1731,Correct
congruent_pinky_thumb,15,29,2,113,23.27,55.47,0.03,0.87,113,1006,Correct
congruent_pinky_thumb,15,30,2,112,68.85,46.65,0.08,0.73,112,1289,Correct
congruent_pinky_thumb,15,31,2,113,49.89,75.69,0.06,1.19,113,928,Correct
congruent_pinky_thumb,15,32,1,109,76.46,61.53,0.09,0.97,99,1218,Incorrect
congruent_pinky_thumb,15,33,2,113,47.36,75.34,0.05,1.18,112,999,Incorrect
congruent_pinky_thumb,15,34,1,99,44.63,71.12,0.05,1.12,109,1015,Incorrect
congruent_pinky_thumb,15,35,2,113,50.09,76.71,0.06,1.2,113,2135,Correct
congruent_pinky_thumb,15,36,1,109,43.3,21.8,0.05,0.34,109,1676,Correct
congruent_pinky_thumb,15,37,1,99,21.25,47.32,0.02,0.74,99,1453,Correct
congruent_pinky_thumb,15,38,1,99,34.53,61.19,0.04,0.96,99,846,Correct
congruent_pinky_thumb,15,39,1,99,30.97,56.16,0.03,0.88,99,623,Correct
congruent_pinky_thumb,15,40,1,99,45.32,54.12,0.05,0.85,109,861,Incorrect
congruent_pinky_thumb,15,41,2,112,40.66,23.02,0.05,0.36,112,953,Correct
congruent_pinky_thumb,15,42,1,99,39.59,71.92,0.04,1.13,99,1452,Correct
congruent_pinky_thumb,15,43,2,113,17.79,45.28,0.02,0.71,112,1328,Incorrect
congruent_pinky_thumb,15,44,1,99,41.5,59.61,0.05,0.94,99,1936,Correct
congruent_pinky_thumb,15,45,1,99,45.32,54.17,0.05,0.85,99,776,Correct
congruent_pinky_thumb,15,46,2,113,33.11,60.41,0.04,0.95,113,2198,Correct
congruent_pinky_thumb,15,47,1,109,65.22,36.01,0.07,0.57,99,2212,Incorrect
congruent_pinky_thumb,15,48,1,109,54.36,35.29,0.06,0.55,109,712,Correct
congruent_pinky_thumb,15,49,1,109,34.29,12.12,0.04,0.19,99,1905,Incorrect
congruent_pinky_thumb,15,50,2,112,60.32,38.72,0.07,0.61,112,4226,Correct
congruent_pinky_thumb,15,51,1,109,45.68,38.11,0.05,0.6,109,870,Correct
congruent_pinky_thumb,15,52,2,113,13.08,30.73,0.01,0.48,113,1825,Correct
congruent_pinky_thumb,15,53,2,113,38.27,67.98,0.04,1.07,112,2636,Incorrect
congruent_pinky_thumb,15,54,2,112,54.44,30.98,0.06,0.49,112,2588,Correct
congruent_pinky_thumb,15,55,2,113,65.43,81.02,0.07,1.27,112,871,Incorrect
congruent_pinky_thumb,15,56,1,109,72.47,40.92,0.08,0.64,99,846,Incorrect
congruent_pinky_thumb,15,57,1,99,29.78,38.53,0.03,0.61,99,2063,Correct
congruent_pinky_thumb,15,58,2,112,56.1,32.39,0.06,0.51,112,1720,Correct
congruent_pinky_thumb,15,59,2,112,74.81,61.38,0.08,0.96,112,809,Correct
congruent_pinky_thumb,15,60,1,99,41.06,70.29,0.05,1.1,99,910,Correct
congruent_pinky_thumb,15,61,1,109,41.85,19.21,0.05,0.3,99,1564,Incorrect
congruent_pinky_thumb,15,62,1,99,57.02,69.08,0.06,1.09,109,1355,Incorrect
congruent_pinky_thumb,15,63,2,112,80.67,54.94,0.09,0.86,112,1927,Correct
congruent_pinky_thumb,15,64,2,113,32.94,54.19,0.04,0.85,113,1571,Correct
congruent_pinky_thumb,15,65,1,99,40.56,67.45,0.05,1.06,99,812,Correct
congruent_pinky_thumb,15,66,2,112,47.21,38.53,0.05,0.61,113,1121,Incorrect
congruent_pinky_thumb,15,67,2,113,48.56,72.15,0.05,1.13,112,620,Incorrect
congruent_pinky_thumb,15,68,1,99,59.29,77.99,0.07,1.23,99,2477,Correct
congruent_pinky_thumb,15,69,2,112,54.44,33.06,0.06,0.52,112,1905,Correct
congruent_pinky_thumb,15,70,1,99,60.58,70.94,0.07,1.11,109,1342,Incorrect
congruent_pinky_thumb,15,71,1,99,42.46,57.87,0.05,0.91,99,1829,Correct
congruent_pinky_thumb,15,72,2,112,50.35,20.15,0.06,0.32,112,1346,Correct
congruent_pinky_thumb,15,73,1,109,44.71,23.34,0.05,0.37,109,1133,Correct
congruent_pinky_thumb,15,74,1,99,19.13,32.11,0.02,0.5,99,753,Correct
congruent_pinky_thumb,15,75,1,99,57.22,74.33,0.06,1.17,109,2123,Incorrect
congruent_pinky_thumb,15,76,1,109,46.62,39.31,0.05,0.62,99,951,Incorrect
congruent_pinky_thumb,15,77,1,109,87.33,63.99,0.1,1.01,109,2553,Correct
congruent_pinky_thumb,15,78,1,109,58.62,46.55,0.07,0.73,109,2033,Correct
congruent_pinky_thumb,15,79,1,99,46.7,68.2,0.05,1.07,109,2291,Incorrect
congruent_pinky_thumb,15,80,2,112,52.54,32.02,0.06,0.5,113,2916,Incorrect
congruent_pinky_thumb,15,81,1,109,40.99,19.22,0.05,0.3,109,2302,Correct
congruent_pinky_thumb,15,82,2,113,24.66,46.15,0.03,0.72,113,1133,Correct
congruent_pinky_thumb,15,83,1,109,45.7,21.77,0.05,0.34,99,2835,Incorrect
congruent_pinky_thumb,15,84,1,109,78.62,66.82,0.09,1.05,109,2828,Correct
congruent_pinky_thumb,15,85,1,99,21.84,52.46,0.02,0.82,99,1151,Correct
congruent_pinky_thumb,15,86,1,99,21.19,44.31,0.02,0.7,99,886,Correct
congruent_pinky_thumb,15,87,1,99,22.97,41.23,0.03,0.65,99,1021,Correct
congruent_pinky_thumb,15,88,2,112,72.39,42.58,0.08,0.67,112,600,Correct
congruent_pinky_thumb,15,89,1,99,11.43,36.65,0.01,0.58,99,491,Correct
congruent_pinky_thumb,15,90,1,99,50.28,78.86,0.06,1.24,109,3267,Incorrect
congruent_pinky_thumb,15,91,1,99,67.24,88.32,0.08,1.39,109,1303,Incorrect
congruent_pinky_thumb,15,92,1,99,42.83,66.27,0.05,1.04,99,870,Correct
congruent_pinky_thumb,15,93,1,99,19.2,47.01,0.02,0.74,99,676,Correct
congruent_pinky_thumb,15,94,1,99,33.7,45.53,0.04,0.72,99,785,Correct
congruent_pinky_thumb,15,95,1,99,69.09,83.54,0.08,1.31,99,610,Correct
congruent_pinky_thumb,15,96,2,112,70.79,38.17,0.08,0.6,113,817,Incorrect
congruent_pinky_thumb,15,97,1,99,29.47,58.27,0.03,0.92,99,1327,Correct
congruent_pinky_thumb,15,98,1,99,42.23,56.19,0.05,0.88,99,778,Correct
congruent_pinky_thumb,15,99,2,113,46.22,69.7,0.05,1.09,113,1687,Correct
congruent_pinky_thumb,15,100,1,99,54.22,71.49,0.06,1.12,109,4028,Incorrect
congruent_pinky_thumb,15,101,2,113,38.93,61.53,0.04,0.97,113,1604,Correct
congruent_pinky_thumb,15,102,1,109,82.65,52.48,0.09,0.82,109,3756,Correct
congruent_pinky_thumb,15,103,1,99,21.74,51.26,0.02,0.81,99,650,Correct
congruent_pinky_thumb,15,104,1,99,68.96,88.37,0.08,1.39,109,2198,Incorrect
congruent_pinky_thumb,15,105,1,99,55.3,71.95,0.06,1.13,99,927,Correct
congruent_pinky_thumb,15,106,1,109,44.27,26.48,0.05,0.42,109,2631,Correct
congruent_pinky_thumb,15,107,2,112,65.09,49.26,0.07,0.77,112,836,Correct
congruent_pinky_thumb,15,108,1,109,67.07,37.71,0.08,0.59,109,1123,Correct
congruent_pinky_thumb,15,109,2,113,19.46,35.59,0.02,0.56,113,1153,Correct
congruent_pinky_thumb,15,110,1,109,57.58,48.18,0.06,0.76,99,2960,Incorrect
congruent_pinky_thumb,15,111,2,113,20.23,41.95,0.02,0.66,113,1440,Correct
congruent_pinky_thumb,15,112,1,99,38.82,68.01,0.04,1.07,109,3372,Incorrect
congruent_pinky_thumb,15,113,2,112,89.43,68.66,0.1,1.08,113,1268,Incorrect
congruent_pinky_thumb,15,114,2,113,19.78,50.56,0.02,0.79,113,794,Correct
congruent_pinky_thumb,15,115,2,112,73.32,50.19,0.08,0.79,112,945,Correct
congruent_pinky_thumb,15,116,2,112,37.92,21.27,0.04,0.33,112,1016,Correct
congruent_pinky_thumb,15,117,1,109,75.61,60.31,0.08,0.95,109,940,Correct
congruent_pinky_thumb,15,118,1,109,40.52,26.17,0.05,0.41,109,584,Correct
congruent_pinky_thumb,15,119,2,112,65.79,57.1,0.07,0.9,112,730,Correct
congruent_pinky_thumb,15,120,1,99,11.21,35.32,0.01,0.55,99,862,Correct
congruent_pinky_thumb,15,121,1,109,79.53,64.47,0.09,1.01,109,1824,Correct
congruent_pinky_thumb,15,122,2,112,37.96,23.92,0.04,0.38,113,6303,Incorrect
congruent_pinky_thumb,15,123,2,112,52.77,41.86,0.06,0.66,112,707,Correct
congruent_pinky_thumb,15,124,1,99,28.27,56.19,0.03,0.88,99,2641,Correct
congruent_pinky_thumb,15,125,2,112,69.88,55.34,0.08,0.87,112,594,Correct
congruent_pinky_thumb,15,126,2,112,40.01,29.4,0.04,0.46,113,1439,Incorrect
congruent_pinky_thumb,15,127,2,112,86.72,62.19,0.1,0.98,112,653,Correct
congruent_pinky_thumb,15,128,2,113,29.27,42.49,0.03,0.67,113,1456,Correct
congruent_pinky_thumb,15,129,2,112,41.91,31.84,0.05,0.5,113,1427,Incorrect
congruent_pinky_thumb,15,130,2,113,21.48,45.68,0.02,0.72,113,989,Correct
congruent_pinky_thumb,15,131,2,112,42.73,28.09,0.05,0.44,112,1246,Correct
congruent_pinky_thumb,15,132,1,99,37.21,69.12,0.04,1.09,109,594,Incorrect
congruent_pinky_thumb,15,133,1,109,60.37,47.31,0.07,0.74,109,1148,Correct
congruent_pinky_thumb,15,134,1,99,19.7,49.94,0.02,0.78,99,475,Correct
congruent_pinky_thumb,15,135,1,109,45.02,29.0,0.05,0.46,99,486,Incorrect
congruent_pinky_thumb,15,136,1,109,61.92,50.55,0.07,0.79,109,1150,Correct
congruent_pinky_thumb,15,137,1,99,20.18,33.8,0.02,0.53,99,633,Correct
congruent_pinky_thumb,15,138,2,113,67.5,81.24,0.08,1.28,112,607,Incorrect
congruent_pinky_thumb,15,139,2,112,50.14,32.55,0.06,0.51,112,854,Correct
congruent_pinky_thumb,15,140,2,113,46.1,57.98,0.05,0.91,113,2341,Correct
congruent_pinky_thumb,15,141,2,113,65.89,82.66,0.07,1.3,112,1338,Incorrect
congruent_pinky_thumb,15,142,1,109,88.3,66.22,0.1,1.04,109,1561,Correct
congruent_pinky_thumb,15,143,2,113,25.48,50.01,0.03,0.79,113,802,Correct
congruent_pinky_thumb,15,144,1,109,35.72,14.04,0.04,0.22,99,4399,Incorrect
congruent_pinky_thumb,15,145,2,113,40.25,56.41,0.05,0.89,109,599,Incorrect
congruent_pinky_thumb,15,146,2,112,41.8,30.44,0.05,0.48,112,914,Correct
congruent_pinky_thumb,15,147,1,99,40.77,53.58,0.05,0.84,109,824,Incorrect
congruent_pinky_thumb,15,148,2,113,56.23,64.68,0.06,1.02,113,3055,Correct
congruent_pinky_thumb,15,149,1,99,40.63,60.47,0.05,0.95,99,2106,Correct
congruent_pinky_thumb,15,150,2,112,51.26,21.04,0.06,0.33,112,1119,Correct
congruent_pinky_thumb,15,151,1,109,72.59,42.06,0.08,0.66,109,3575,Correct
congruent_pinky_thumb,15,152,1,109,77.81,62.1,0.09,0.98,99,3328,Incorrect
congruent_pinky_thumb,15,153,2,113,36.28,60.68,0.04,0.95,113,1910,Correct
congruent_pinky_thumb,15,154,2,113,13.74,32.84,0.02,0.52,113,784,Correct
congruent_pinky_thumb,15,155,1,99,23.56,36.92,0.03,0.58,99,1110,Correct
congruent_pinky_thumb,15,156,2,112,56.38,40.32,0.06,0.63,112,2160,Correct
congruent_pinky_thumb,15,157,1,109,47.18,28.59,0.05,0.45,109,947,Correct
congruent_pinky_thumb,15,158,2,113,32.4,46.85,0.04,0.74,112,510,Incorrect
congruent_pinky_thumb,15,159,1,109,44.34,26.01,0.05,0.41,99,1331,Incorrect
congruent_pinky_thumb,15,160,1,109,65.71,54.46,0.07,0.86,109,3374,Correct
congruent_pinky_thumb,15,161,2,113,38.05,49.82,0.04,0.78,113,1503,Correct
congruent_pinky_thumb,15,162,1,99,27.39,38.13,0.03,0.6,99,1151,Correct
congruent_pinky_thumb,15,163,1,109,68.1,58.0,0.08,0.91,109,1648,Correct
congruent_pinky_thumb,15,164,2,112,61.62,52.93,0.07,0.83,112,1468,Correct
congruent_pinky_thumb,15,165,2,113,15.99,38.06,0.02,0.6,113,638,Correct
congruent_pinky_thumb,15,166,2,113,50.88,59.79,0.06,0.94,112,1120,Incorrect
congruent_pinky_thumb,15,167,1,109,73.03,46.98,0.08,0.74,109,1819,Correct
congruent_pinky_thumb,15,168,1,109,63.22,30.6,0.07,0.48,109,716,Correct
congruent_pinky_thumb,15,169,2,112,76.28,54.91,0.09,0.86,112,469,Correct
congruent_pinky_thumb,15,170,2,113,51.24,72.15,0.06,1.13,113,829,Correct
congruent_pinky_thumb,15,171,1,99,40.73,71.07,0.05,1.12,99,1035,Correct
congruent_pinky_thumb,15,172,1,99,50.05,70.65,0.06,1.11,99,773,Correct
congruent_pinky_thumb,15,173,2,112,39.77,14.64,0.04,0.23,112,819,Correct
congruent_pinky_thumb,15,174,2,113,40.17,67.99,0.04,1.07,112,706,Incorrect
congruent_pinky_thumb,15,175,2,112,36.87,13.77,0.04,0.22,112,2011,Correct
congruent_pinky_thumb,15,176,2,113,39.82,57.88,0.04,0.91,112,640,Incorrect
congruent_pinky_thumb,15,177,2,112,88.37,68.43,0.1,1.07,112,806,Correct
congruent_pinky_thumb,15,178,1,109,43.69,28.09,0.05,0.44,99,928,Incorrect
congruent_pinky_thumb,15,179,1,99,24.14,36.39,0.03,0.57,99,628,Correct
congruent_pinky_thumb,15,180,2,113,24.01,48.85,0.03,0.77,113,1518,Correct
congruent_pinky_thumb,15,181,1,99,17.63,43.88,0.02,0.69,99,449,Correct
congruent_pinky_thumb,15,182,1,109,74.48,59.67,0.08,0.94,99,5687,Incorrect
congruent_pinky_thumb,15,183,2,113,61.12,78.31,0.07,1.23,112,971,Incorrect
congruent_pinky_thumb,15,184,1,99,56.52,71.63,0.06,1.13,99,1494,Correct
congruent_pinky_thumb,15,185,1,99,15.91,40.78,0.02,0.64,99,689,Correct
congruent_pinky_thumb,15,186,2,112,55.76,42.94,0.06,0.67,112,1150,Correct
congruent_pinky_thumb,15,187,1,99,25.69,45.58,0.03,0.72,99,816,Correct
congruent_pinky_thumb,15,188,1,109,83.01,57.58,0.09,0.9,109,1903,Correct
congruent_pinky_thumb,15,189,2,112,60.44,49.65,0.07,0.78,112,584,Correct
congruent_pinky_thumb,15,190,2,112,46.41,18.7,0.05,0.29,113,3659,Incorrect
congruent_pinky_thumb,15,191,1,109,33.19,17.5,0.04,0.27,99,539,Correct
congruent_pinky_thumb,15,192,2,113,19.51,41.69,0.02,0.65,113,700,Correct
congruent_pinky_thumb,15,193,1,109,39.56,21.67,0.04,0.34,109,858,Correct
congruent_pinky_thumb,15,194,2,112,47.05,35.52,0.05,0.56,113,1511,Incorrect
congruent_pinky_thumb,15,195,1,99,54.95,72.91,0.06,1.15,109,2341,Incorrect
congruent_pinky_thumb,15,196,1,109,62.35,48.22,0.07,0.76,109,1844,Correct
congruent_pinky_thumb,15,197,1,109,61.71,42.99,0.07,0.68,109,592,Correct
congruent_pinky_thumb,15,198,1,99,65.41,83.44,0.07,1.31,109,767,Incorrect
congruent_pinky_thumb,15,199,2,112,66.53,45.76,0.07,0.72,113,1253,Incorrect
congruent_pinky_thumb,15,200,2,113,22.24,45.95,0.02,0.72,113,1805,Correct
congruent_pinky_thumb,15,201,1,109,36.92,15.31,0.04,0.24,99,2139,Incorrect
congruent_pinky_thumb,15,202,2,112,43.22,15.53,0.05,0.24,112,612,Correct
congruent_pinky_thumb,15,203,1,109,82.38,51.91,0.09,0.82,109,1094,Correct
congruent_pinky_thumb,15,204,2,113,35.43,48.44,0.04,0.76,113,1658,Correct
congruent_pinky_thumb,15,205,1,109,67.74,42.0,0.08,0.66,109,2514,Correct
congruent_pinky_thumb,15,206,1,99,60.43,81.13,0.07,1.27,99,767,Correct
congruent_pinky_thumb,15,207,1,99,50.58,63.28,0.06,0.99,99,629,Correct
congruent_pinky_thumb,15,208,1,109,82.01,53.66,0.09,0.84,109,812,Correct
congruent_pinky_thumb,15,209,2,112,40.95,24.79,0.05,0.39,113,702,Incorrect
congruent_pinky_thumb,15,210,1,109,75.83,43.51,0.08,0.68,109,655,Correct
congruent_pinky_thumb,15,211,1,109,76.89,63.79,0.09,1.0,109,812,Correct
congruent_pinky_thumb,15,212,1,99,45.52,64.62,0.05,1.02,109,1478,Incorrect
congruent_pinky_thumb,15,213,2,112,75.42,60.9,0.08,0.96,112,1356,Correct
congruent_pinky_thumb,15,214,2,113,33.02,56.21,0.04,0.88,113,1075,Correct
congruent_pinky_thumb,15,215,1,109,72.44,57.71,0.08,0.91,109,1057,Correct
congruent_pinky_thumb,15,216,2,112,49.79,32.94,0.06,0.52,112,863,Correct
congruent_pinky_thumb,15,217,2,112,68.57,42.33,0.08,0.66,112,1736,Correct
congruent_pinky_thumb,15,218,2,112,39.25,15.32,0.04,0.24,113,683,Incorrect
congruent_pinky_thumb,15,219,1,99,37.66,66.45,0.04,1.04,109,1469,Incorrect
congruent_pinky_thumb,15,220,1,109,48.36,20.53,0.05,0.32,99,557,Incorrect
congruent_pinky_thumb,15,221,2,113,28.26,44.08,0.03,0.69,113,499,Correct
congruent_pinky_thumb,15,222,1,109,59.71,43.43,0.07,0.68,109,619,Correct
congruent_pinky_thumb,15,223,1,109,37.82,18.35,0.04,0.29,99,805,Incorrect
congruent_pinky_thumb,15,224,2,113,21.56,46.48,0.02,0.73,113,1150,Correct
congruent_pinky_thumb,15,225,2,113,67.29,85.36,0.08,1.34,113,683,Correct
congruent_pinky_thumb,15,226,1,109,46.54,29.41,0.05,0.46,109,2315,Correct
congruent_pinky_thumb,15,227,1,99,34.92,50.27,0.04,0.79,99,570,Correct
congruent_pinky_thumb,15,228,2,112,32.3,12.27,0.04,0.19,112,885,Correct
congruent_pinky_thumb,15,229,2,113,53.88,74.81,0.06,1.18,112,3622,Incorrect
congruent_pinky_thumb,15,230,1,109,76.03,64.31,0.09,1.01,109,1360,Correct
congruent_pinky_thumb,15,231,2,112,73.98,47.08,0.08,0.74,112,2277,Correct
congruent_pinky_thumb,15,232,1,99,10.58,33.01,0.01,0.52,99,977,Correct
congruent_pinky_thumb,15,233,2,112,69.37,46.98,0.08,0.74,112,8874,Correct
congruent_pinky_thumb,15,234,1,109,51.26,39.32,0.06,0.62,109,843,Correct
congruent_pinky_thumb,15,235,2,113,57.18,75.64,0.06,1.19,112,762,Incorrect
congruent_pinky_thumb,15,236,1,109,66.03,38.9,0.07,0.61,109,835,Correct
congruent_pinky_thumb,15,237,1,99,40.54,50.96,0.05,0.8,99,944,Correct
congruent_pinky_thumb,15,238,2,112,59.79,38.13,0.07,0.6,112,764,Correct
congruent_pinky_thumb,15,239,1,99,48.49,61.85,0.05,0.97,99,850,Correct
congruent_pinky_thumb,15,240,2,113,25.67,44.47,0.03,0.7,113,484,Correct
congruent_pinky_thumb,15,241,2,113,66.93,85.18,0.07,1.34,113,1633,Correct
congruent_pinky_thumb,15,242,1,99,34.35,60.33,0.04,0.95,109,1707,Incorrect
congruent_pinky_thumb,15,243,1,109,62.19,44.28,0.07,0.7,99,834,Incorrect
congruent_pinky_thumb,15,244,2,113,30.52,44.87,0.03,0.7,113,756,Correct
congruent_pinky_thumb,15,245,2,113,66.86,88.09,0.07,1.38,112,686,Incorrect
congruent_pinky_thumb,15,246,1,99,45.28,54.21,0.05,0.85,99,561,Correct
congruent_pinky_thumb,15,247,1,99,45.91,65.75,0.05,1.03,99,971,Correct
congruent_pinky_thumb,15,248,2,112,67.26,45.09,0.08,0.71,112,667,Correct
congruent_pinky_thumb,15,249,1,109,40.58,23.46,0.05,0.37,99,1186,Incorrect
congruent_pinky_thumb,15,250,2,112,75.0,46.11,0.08,0.72,112,684,Correct
congruent_pinky_thumb,15,251,2,112,82.74,55.26,0.09,0.87,112,652,Correct
congruent_pinky_thumb,15,252,1,109,68.29,54.19,0.08,0.85,109,554,Correct
congruent_pinky_thumb,15,253,1,109,38.1,20.18,0.04,0.32,99,563,Incorrect
congruent_pinky_thumb,15,254,1,109,51.39,37.02,0.06,0.58,99,862,Incorrect
congruent_pinky_thumb,15,255,1,109,82.97,65.32,0.09,1.03,109,511,Correct
congruent_pinky_thumb,15,256,2,112,48.09,35.95,0.05,0.56,112,3397,Correct
congruent_pinky_thumb,15,257,2,113,52.85,70.89,0.06,1.11,112,620,Incorrect
congruent_pinky_thumb,15,258,1,109,56.43,35.29,0.06,0.55,99,1158,Incorrect
congruent_pinky_thumb,15,259,2,113,44.14,58.17,0.05,0.91,113,889,Correct
congruent_pinky_thumb,15,260,2,113,56.61,74.6,0.06,1.17,112,604,Incorrect
congruent_pinky_thumb,15,261,1,99,44.71,73.43,0.05,1.15,99,465,Correct
congruent_pinky_thumb,15,262,1,99,49.28,77.41,0.06,1.22,99,462,Correct
congruent_pinky_thumb,15,263,1,99,49.15,76.23,0.06,1.2,99,440,Correct
congruent_pinky_thumb,15,264,1,99,34.88,43.58,0.04,0.68,99,423,Correct
congruent_pinky_thumb,15,265,1,99,51.43,66.05,0.06,1.04,99,392,Correct
congruent_pinky_thumb,15,266,2,112,78.94,63.9,0.09,1.0,112,1747,Correct
congruent_pinky_thumb,15,267,1,109,85.3,56.59,0.1,0.89,109,744,Correct
congruent_pinky_thumb,15,268,2,113,19.11,37.72,0.02,0.59,113,672,Correct
congruent_pinky_thumb,15,269,1,99,27.82,54.69,0.03,0.86,99,654,Correct
congruent_pinky_thumb,15,270,2,113,27.09,58.8,0.03,0.92,113,1220,Correct
congruent_pinky_thumb,15,271,2,112,47.05,22.83,0.05,0.36,112,659,Correct
congruent_pinky_thumb,15,272,2,112,38.54,21.15,0.04,0.33,112,578,Correct
congruent_pinky_thumb,15,273,1,99,50.66,76.33,0.06,1.2,109,450,Incorrect
congruent_pinky_thumb,15,274,2,112,51.61,36.32,0.06,0.57,112,726,Correct
congruent_pinky_thumb,15,275,2,112,62.24,38.34,0.07,0.6,112,763,Correct
congruent_pinky_thumb,15,276,2,112,80.45,50.63,0.09,0.8,112,493,Correct
congruent_pinky_thumb,15,277,2,113,41.27,56.54,0.05,0.89,112,1297,Incorrect
congruent_pinky_thumb,15,278,1,109,59.05,39.7,0.07,0.62,99,404,Incorrect
congruent_pinky_thumb,15,279,1,99,59.4,79.3,0.07,1.25,109,558,Incorrect
congruent_pinky_thumb,15,280,1,99,38.47,66.41,0.04,1.04,99,586,Correct
congruent_pinky_thumb,15,281,2,113,49.71,76.08,0.06,1.2,112,832,Incorrect
congruent_pinky_thumb,15,282,2,113,50.1,66.89,0.06,1.05,112,527,Incorrect
congruent_pinky_thumb,15,283,2,112,34.69,12.35,0.04,0.19,113,463,Incorrect
congruent_pinky_thumb,15,284,2,112,74.74,61.79,0.08,0.97,112,791,Correct
congruent_pinky_thumb,15,285,1,99,23.64,43.49,0.03,0.68,99,570,Correct
congruent_pinky_thumb,15,286,1,99,25.27,49.98,0.03,0.79,99,467,Correct
congruent_pinky_thumb,15,287,2,113,44.98,73.78,0.05,1.16,112,1151,Incorrect
congruent_pinky_thumb,15,288,1,99,26.74,58.29,0.03,0.92,99,1326,Correct
congruent_pinky_thumb,15,289,2,113,65.04,79.91,0.07,1.26,112,557,Incorrect
congruent_pinky_thumb,15,290,1,99,52.69,66.61,0.06,1.05,109,1962,Incorrect
congruent_pinky_thumb,15,291,1,109,33.68,12.95,0.04,0.2,99,577,Incorrect
congruent_pinky_thumb,15,292,1,109,62.37,32.87,0.07,0.52,109,1993,Correct
congruent_pinky_thumb,15,293,2,112,58.76,31.65,0.07,0.5,113,5793,Incorrect
congruent_pinky_thumb,15,294,1,99,38.14,49.59,0.04,0.78,99,492,Correct
congruent_pinky_thumb,15,295,2,112,87.58,66.9,0.1,1.05,112,580,Correct
congruent_pinky_thumb,15,296,1,99,44.66,64.55,0.05,1.01,99,1656,Correct
congruent_pinky_thumb,15,297,1,99,24.55,53.66,0.03,0.84,99,575,Correct
congruent_pinky_thumb,15,298,1,99,54.96,76.48,0.06,1.2,99,608,Correct
congruent_pinky_thumb,15,299,1,109,56.4,31.7,0.06,0.5,99,621,Incorrect
congruent_pinky_thumb,15,300,1,99,29.17,56.41,0.03,0.89,99,691,Correct
congruent_pinky_thumb,15,301,2,112,67.41,36.84,0.08,0.58,112,499,Correct
congruent_pinky_thumb,15,302,2,113,45.99,54.31,0.05,0.85,112,434,Incorrect
congruent_pinky_thumb,15,303,2,113,25.42,40.82,0.03,0.64,113,1305,Correct
congruent_pinky_thumb,15,304,1,109,64.83,33.85,0.07,0.53,109,709,Correct
congruent_pinky_thumb,15,305,2,112,34.27,10.65,0.04,0.17,113,614,Incorrect
congruent_pinky_thumb,15,306,2,112,79.13,48.96,0.09,0.77,112,1122,Correct
congruent_pinky_thumb,15,307,1,99,58.18,67.42,0.07,1.06,109,527,Incorrect
congruent_pinky_thumb,15,308,2,113,30.93,51.65,0.03,0.81,113,736,Correct
congruent_pinky_thumb,15,309,1,109,75.24,62.82,0.08,0.99,109,588,Correct
congruent_pinky_thumb,15,310,2,112,52.98,45.17,0.06,0.71,112,584,Correct
congruent_pinky_thumb,15,311,2,112,43.23,19.07,0.05,0.3,112,484,Correct
congruent_pinky_thumb,15,312,1,99,19.55,47.89,0.02,0.75,99,1157,Correct
congruent_pinky_thumb,15,313,2,113,62.96,84.92,0.07,1.33,112,987,Incorrect
congruent_pinky_thumb,15,314,1,99,57.7,71.57,0.06,1.12,109,2015,Incorrect
congruent_pinky_thumb,15,315,1,109,65.11,44.68,0.07,0.7,99,681,Incorrect
congruent_pinky_thumb,15,316,1,99,19.77,45.88,0.02,0.72,99,613,Correct
congruent_pinky_thumb,15,317,2,112,70.77,48.62,0.08,0.76,112,532,Correct
congruent_pinky_thumb,15,318,2,112,58.21,37.27,0.07,0.59,112,528,Correct
congruent_pinky_thumb,15,319,1,109,66.05,38.42,0.07,0.6,99,1587,Incorrect
congruent_pinky_thumb,15,320,1,99,21.57,51.52,0.02,0.81,99,828,Correct
congruent_pinky_thumb,15,321,2,113,64.56,89.42,0.07,1.4,112,810,Incorrect
congruent_pinky_thumb,15,322,1,109,34.23,13.36,0.04,0.21,99,986,Incorrect
congruent_pinky_thumb,15,323,1,109,63.57,34.18,0.07,0.54,109,924,Correct
congruent_pinky_thumb,15,324,2,112,73.94,47.59,0.08,0.75,112,741,Correct
congruent_pinky_thumb,15,325,2,112,35.55,18.7,0.04,0.29,109,754,Correct
congruent_pinky_thumb,15,326,1,99,28.23,58.14,0.03,0.91,99,783,Correct
congruent_pinky_thumb,15,327,2,112,53.24,32.29,0.06,0.51,112,681,Correct
congruent_pinky_thumb,15,328,1,109,38.13,26.85,0.04,0.42,99,845,Incorrect
congruent_pinky_thumb,15,329,2,112,67.65,48.55,0.08,0.76,112,796,Correct
congruent_pinky_thumb,15,330,1,109,35.13,19.81,0.04,0.31,99,720,Incorrect
congruent_pinky_thumb,15,331,2,112,39.23,20.42,0.04,0.32,112,2354,Correct
congruent_pinky_thumb,15,332,2,113,66.41,85.13,0.07,1.34,112,784,Incorrect
congruent_pinky_thumb,15,333,2,112,36.99,13.0,0.04,0.2,112,1485,Correct
congruent_pinky_thumb,15,334,2,113,31.76,55.02,0.04,0.86,113,723,Correct
congruent_pinky_thumb,15,335,2,112,47.95,33.98,0.05,0.53,113,1123,Incorrect
congruent_pinky_thumb,15,336,1,99,32.21,64.83,0.04,1.02,99,1156,Correct
congruent_pinky_thumb,15,337,1,99,56.06,63.64,0.06,1.0,109,1157,Incorrect
congruent_pinky_thumb,15,338,2,112,80.91,65.15,0.09,1.02,112,776,Correct
congruent_pinky_thumb,15,339,2,112,70.32,40.71,0.08,0.64,112,597,Correct
congruent_pinky_thumb,15,340,2,112,78.94,62.43,0.09,0.98,112,539,Correct
congruent_pinky_thumb,15,341,2,112,38.84,14.91,0.04,0.23,113,1016,Incorrect
congruent_pinky_thumb,15,342,2,112,60.02,48.75,0.07,0.77,112,556,Correct
congruent_pinky_thumb,15,343,1,99,19.37,50.6,0.02,0.79,99,934,Correct
congruent_pinky_thumb,15,344,1,99,52.38,60.95,0.06,0.96,109,664,Incorrect
congruent_pinky_thumb,15,345,2,112,43.24,35.36,0.05,0.56,112,2694,Correct
congruent_pinky_thumb,15,346,2,113,48.74,64.11,0.05,1.01,112,633,Incorrect
congruent_pinky_thumb,15,347,2,113,38.51,70.36,0.04,1.11,112,494,Incorrect
congruent_pinky_thumb,15,348,1,109,69.98,41.17,0.08,0.65,109,2163,Correct
congruent_pinky_thumb,15,349,2,112,43.67,15.51,0.05,0.24,113,1618,Incorrect
congruent_pinky_thumb,15,350,2,113,36.43,53.35,0.04,0.84,112,1161,Incorrect
congruent_pinky_thumb,15,351,1,109,58.55,27.85,0.07,0.44,109,618,Correct
congruent_pinky_thumb,15,352,1,99,59.61,69.4,0.07,1.09,109,518,Incorrect
congruent_pinky_thumb,15,353,1,99,30.17,60.87,0.03,0.96,99,640,Correct
congruent_pinky_thumb,15,354,1,99,45.58,60.46,0.05,0.95,109,565,Incorrect
congruent_pinky_thumb,15,355,1,99,49.54,71.64,0.06,1.13,99,396,Correct
congruent_pinky_thumb,15,356,2,113,22.65,50.03,0.03,0.79,113,773,Correct
congruent_pinky_thumb,15,357,1,109,73.89,44.69,0.08,0.7,109,1282,Correct
congruent_pinky_thumb,15,358,2,113,24.34,51.42,0.03,0.81,113,863,Correct
congruent_pinky_thumb,15,359,1,99,64.54,87.57,0.07,1.38,109,580,Incorrect
congruent_pinky_thumb,15,360,1,99,59.91,78.94,0.07,1.24,109,560,Incorrect
congruent_pinky_thumb,15,361,1,109,70.33,57.14,0.08,0.9,99,552,Incorrect
congruent_pinky_thumb,15,362,1,99,32.56,44.58,0.04,0.7,109,1431,Incorrect
congruent_pinky_thumb,15,363,2,112,42.61,33.62,0.05,0.53,112,1679,Correct
congruent_pinky_thumb,15,364,1,99,58.98,85.17,0.07,1.34,109,654,Incorrect
congruent_pinky_thumb,15,365,1,109,87.56,68.24,0.1,1.07,99,432,Incorrect
congruent_pinky_thumb,15,366,2,113,57.94,71.17,0.06,1.12,112,587,Incorrect
congruent_pinky_thumb,15,367,2,112,80.39,48.85,0.09,0.77,112,676,Correct
congruent_pinky_thumb,15,368,2,112,49.85,18.93,0.06,0.3,112,602,Correct
congruent_pinky_thumb,15,369,1,99,57.9,71.52,0.06,1.12,109,705,Incorrect
congruent_pinky_thumb,15,370,2,112,67.22,54.88,0.08,0.86,112,1395,Correct
congruent_pinky_thumb,15,371,1,99,49.1,61.28,0.05,0.96,99,1157,Correct
congruent_pinky_thumb,15,372,1,109,52.12,38.44,0.06,0.6,109,644,Correct
congruent_pinky_thumb,15,373,2,112,43.9,18.48,0.05,0.29,112,793,Correct
congruent_pinky_thumb,15,374,1,109,88.65,64.65,0.1,1.02,109,486,Correct
congruent_pinky_thumb,15,375,1,99,44.77,69.08,0.05,1.09,109,545,Incorrect
congruent_pinky_thumb,15,376,2,113,19.41,43.59,0.02,0.68,113,739,Correct
congruent_pinky_thumb,15,377,1,109,71.03,48.0,0.08,0.75,99,506,Incorrect
congruent_pinky_thumb,15,378,1,99,58.4,69.78,0.07,1.1,109,539,Incorrect
congruent_pinky_thumb,15,379,1,109,62.16,50.27,0.07,0.79,99,450,Incorrect
congruent_pinky_thumb,15,380,2,112,88.51,65.6,0.1,1.03,112,509,Correct
congruent_pinky_thumb,15,381,2,113,39.02,70.44,0.04,1.11,113,603,Correct
congruent_pinky_thumb,15,382,1,99,25.58,35.64,0.03,0.56,99,498,Correct
congruent_pinky_thumb,15,383,1,99,54.91,63.29,0.06,0.99,99,499,Correct
congruent_pinky_thumb,15,384,2,113,34.58,43.37,0.04,0.68,113,715,Correct
congruent_pinky_thumb,15,385,2,113,21.24,40.22,0.02,0.63,113,996,Correct
congruent_pinky_thumb,15,386,2,112,53.9,37.18,0.06,0.58,113,473,Incorrect
congruent_pinky_thumb,15,387,1,99,29.53,46.13,0.03,0.72,109,808,Incorrect
congruent_pinky_thumb,15,388,2,112,77.28,50.61,0.09,0.79,113,7,Incorrect
congruent_pinky_thumb,15,389,1,99,49.75,59.43,0.06,0.93,109,1364,Incorrect
congruent_pinky_thumb,15,390,1,109,36.66,12.53,0.04,0.2,99,634,Incorrect
congruent_pinky_thumb,15,391,1,109,47.61,37.77,0.05,0.59,109,1911,Correct
congruent_pinky_thumb,15,392,2,112,82.44,68.31,0.09,1.07,112,418,Correct
congruent_pinky_thumb,15,393,2,113,28.61,55.78,0.03,0.88,113,681,Correct
congruent_pinky_thumb,15,394,2,113,48.31,66.69,0.05,1.05,113,457,Correct
congruent_pinky_thumb,15,395,2,113,56.58,83.41,0.06,1.31,112,1048,Incorrect
congruent_pinky_thumb,15,396,2,113,62.8,72.44,0.07,1.14,112,696,Incorrect
congruent_pinky_thumb,15,397,2,112,79.16,49.02,0.09,0.77,112,646,Correct
congruent_pinky_thumb,15,398,1,109,81.21,51.72,0.09,0.81,109,2064,Correct
