condition,subject,trial,sub_task,cat,x,y,xt,yt,resp,rt,fb
congruent_pointer_middle,25,0,2,100,35.77,65.19,0.04,1.02,100,5316,Correct
congruent_pointer_middle,25,1,1,106,68.01,45.8,0.08,0.72,106,2101,Correct
congruent_pointer_middle,25,2,1,106,54.73,26.14,0.06,0.41,106,1171,Correct
congruent_pointer_middle,25,3,1,102,65.09,79.36,0.07,1.25,106,760,Incorrect
congruent_pointer_middle,25,4,1,102,54.17,67.81,0.06,1.07,102,2009,Correct
congruent_pointer_middle,25,5,1,102,34.42,67.05,0.04,1.05,106,3391,Incorrect
congruent_pointer_middle,25,6,1,102,47.98,67.58,0.05,1.06,106,2870,Incorrect
congruent_pointer_middle,25,7,1,102,20.89,34.17,0.02,0.54,106,2253,Incorrect
congruent_pointer_middle,25,8,1,106,66.57,39.61,0.07,0.62,106,1265,Correct
congruent_pointer_middle,25,9,2,107,44.93,15.33,0.05,0.24,100,6717,Incorrect
congruent_pointer_middle,25,10,2,107,65.27,46.05,0.07,0.72,107,5846,Correct
congruent_pointer_middle,25,11,1,106,46.2,37.97,0.05,0.6,102,6796,Incorrect
congruent_pointer_middle,25,12,2,100,29.08,41.19,0.03,0.65,100,7153,Correct
congruent_pointer_middle,25,13,1,106,50.15,29.24,0.06,0.46,106,3149,Correct
congruent_pointer_middle,25,14,2,100,63.51,74.58,0.07,1.17,107,6078,Incorrect
congruent_pointer_middle,25,15,2,100,25.25,35.6,0.03,0.56,100,1942,Correct
congruent_pointer_middle,25,16,2,107,75.19,57.47,0.08,0.9,107,4300,Correct
congruent_pointer_middle,25,17,2,100,41.86,63.28,0.05,0.99,100,1295,Correct
congruent_pointer_middle,25,18,2,107,78.87,59.55,0.09,0.94,107,895,Correct
congruent_pointer_middle,25,19,1,106,85.03,65.33,0.1,1.03,106,1158,Correct
congruent_pointer_middle,25,20,1,102,50.46,78.61,0.06,1.23,102,616,Correct
congruent_pointer_middle,25,21,1,102,60.54,85.33,0.07,1.34,102,769,Correct
congruent_pointer_middle,25,22,2,100,43.16,65.81,0.05,1.03,100,486,Correct
congruent_pointer_middle,25,23,2,107,74.93,50.72,0.08,0.8,107,560,Correct
congruent_pointer_middle,25,24,2,100,61.05,82.94,0.07,1.3,100,627,Correct
congruent_pointer_middle,25,25,2,107,59.07,40.97,0.07,0.64,100,558,Incorrect
congruent_pointer_middle,25,26,1,106,78.8,47.15,0.09,0.74,106,647,Correct
congruent_pointer_middle,25,27,1,102,29.75,47.04,0.03,0.74,102,855,Correct
congruent_pointer_middle,25,28,1,106,49.62,32.48,0.06,0.51,102,725,Incorrect
congruent_pointer_middle,25,29,1,102,22.67,46.14,0.03,0.72,102,617,Correct
congruent_pointer_middle,25,30,1,106,39.25,27.04,0.04,0.42,102,1171,Incorrect
congruent_pointer_middle,25,31,2,100,14.04,35.89,0.02,0.56,100,569,Correct
congruent_pointer_middle,25,32,1,102,60.22,84.87,0.07,1.33,106,644,Incorrect
congruent_pointer_middle,25,33,1,106,61.74,31.45,0.07,0.49,106,522,Correct
congruent_pointer_middle,25,34,1,106,73.14,63.43,0.08,1.0,106,1110,Correct
congruent_pointer_middle,25,35,2,107,53.31,42.91,0.06,0.67,100,1104,Incorrect
congruent_pointer_middle,25,36,2,107,49.81,32.41,0.06,0.51,107,663,Correct
congruent_pointer_middle,25,37,1,106,60.19,38.76,0.07,0.61,102,1013,Incorrect
congruent_pointer_middle,25,38,2,107,38.45,17.73,0.04,0.28,100,485,Incorrect
congruent_pointer_middle,25,39,1,102,13.54,41.21,0.02,0.65,102,584,Correct
congruent_pointer_middle,25,40,1,102,61.66,78.53,0.07,1.23,102,1109,Correct
congruent_pointer_middle,25,41,2,100,42.76,68.33,0.05,1.07,100,966,Correct
congruent_pointer_middle,25,42,2,107,54.28,29.35,0.06,0.46,100,631,Incorrect
congruent_pointer_middle,25,43,1,102,18.53,49.19,0.02,0.77,102,642,Correct
congruent_pointer_middle,25,44,2,107,49.72,40.57,0.06,0.64,107,895,Correct
congruent_pointer_middle,25,45,2,107,49.29,42.21,0.06,0.66,100,1003,Incorrect
congruent_pointer_middle,25,46,1,102,57.18,86.11,0.06,1.35,106,1237,Incorrect
congruent_pointer_middle,25,47,1,106,69.7,41.36,0.08,0.65,106,797,Correct
congruent_pointer_middle,25,48,2,107,46.73,16.73,0.05,0.26,100,842,Incorrect
congruent_pointer_middle,25,49,1,106,58.09,41.21,0.06,0.65,102,1029,Incorrect
congruent_pointer_middle,25,50,2,100,39.59,68.11,0.04,1.07,100,614,Correct
congruent_pointer_middle,25,51,2,107,77.51,48.32,0.09,0.76,107,654,Correct
congruent_pointer_middle,25,52,2,107,37.29,13.35,0.04,0.21,100,895,Incorrect
congruent_pointer_middle,25,53,1,106,38.07,25.53,0.04,0.4,102,2906,Incorrect
congruent_pointer_middle,25,54,2,107,36.4,21.94,0.04,0.34,100,2029,Incorrect
congruent_pointer_middle,25,55,2,100,58.68,84.44,0.07,1.33,107,957,Incorrect
congruent_pointer_middle,25,56,2,100,43.85,53.09,0.05,0.83,100,4006,Correct
congruent_pointer_middle,25,57,2,100,42.3,71.76,0.05,1.13,100,1625,Correct
congruent_pointer_middle,25,58,1,106,75.59,44.29,0.08,0.7,106,897,Correct
congruent_pointer_middle,25,59,1,102,65.45,78.51,0.07,1.23,106,859,Incorrect
congruent_pointer_middle,25,60,1,106,55.35,26.8,0.06,0.42,102,4684,Incorrect
congruent_pointer_middle,25,61,2,100,36.12,46.86,0.04,0.74,100,2107,Correct
congruent_pointer_middle,25,62,2,100,32.26,62.98,0.04,0.99,100,1262,Correct
congruent_pointer_middle,25,63,2,107,46.3,20.68,0.05,0.32,107,2040,Correct
congruent_pointer_middle,25,64,1,106,38.07,27.16,0.04,0.43,102,3412,Incorrect
congruent_pointer_middle,25,65,2,100,38.43,52.5,0.04,0.82,100,2443,Correct
congruent_pointer_middle,25,66,2,107,40.39,24.21,0.05,0.38,100,3221,Incorrect
congruent_pointer_middle,25,67,1,106,50.68,23.94,0.06,0.38,106,4150,Correct
congruent_pointer_middle,25,68,2,107,65.07,55.7,0.07,0.87,107,1907,Correct
congruent_pointer_middle,25,69,2,107,48.25,28.51,0.05,0.45,100,4253,Incorrect
congruent_pointer_middle,25,70,1,106,68.96,59.53,0.08,0.94,106,875,Correct
congruent_pointer_middle,25,71,1,106,76.32,56.8,0.09,0.89,106,723,Correct
congruent_pointer_middle,25,72,2,100,53.17,67.87,0.06,1.07,100,1505,Correct
congruent_pointer_middle,25,73,2,107,39.35,24.07,0.04,0.38,100,2075,Incorrect
congruent_pointer_middle,25,74,1,102,39.63,71.23,0.04,1.12,102,2007,Correct
congruent_pointer_middle,25,75,2,107,63.39,53.58,0.07,0.84,107,2780,Correct
congruent_pointer_middle,25,76,2,100,60.55,69.92,0.07,1.1,107,1585,Incorrect
congruent_pointer_middle,25,77,1,106,64.27,36.66,0.07,0.58,106,1907,Correct
congruent_pointer_middle,25,78,1,106,84.27,56.91,0.09,0.89,106,1858,Correct
congruent_pointer_middle,25,79,1,102,31.78,45.62,0.04,0.72,102,2028,Correct
congruent_pointer_middle,25,80,2,107,56.4,46.13,0.06,0.72,107,1036,Correct
congruent_pointer_middle,25,81,2,107,77.57,63.12,0.09,0.99,107,975,Correct
congruent_pointer_middle,25,82,2,100,16.98,41.23,0.02,0.65,100,963,Correct
congruent_pointer_middle,25,83,1,102,35.03,60.41,0.04,0.95,102,1012,Correct
congruent_pointer_middle,25,84,2,107,77.25,44.86,0.09,0.7,107,767,Correct
congruent_pointer_middle,25,85,1,102,24.8,48.28,0.03,0.76,102,609,Correct
congruent_pointer_middle,25,86,2,107,38.17,12.8,0.04,0.2,100,567,Incorrect
congruent_pointer_middle,25,87,2,107,46.93,19.7,0.05,0.31,107,742,Correct
congruent_pointer_middle,25,88,1,102,56.44,66.64,0.06,1.05,102,991,Correct
congruent_pointer_middle,25,89,2,100,51.78,72.49,0.06,1.14,107,1040,Incorrect
congruent_pointer_middle,25,90,1,102,33.37,66.37,0.04,1.04,102,670,Correct
congruent_pointer_middle,25,91,1,106,42.1,19.56,0.05,0.31,102,1282,Incorrect
congruent_pointer_middle,25,92,2,107,46.79,31.2,0.05,0.49,107,1577,Correct
congruent_pointer_middle,25,93,1,102,29.29,52.65,0.03,0.83,102,1316,Correct
congruent_pointer_middle,25,94,1,102,46.14,76.76,0.05,1.21,106,1389,Incorrect
congruent_pointer_middle,25,95,2,100,46.25,76.19,0.05,1.2,100,2379,Correct
congruent_pointer_middle,25,96,1,106,64.41,32.19,0.07,0.51,106,797,Correct
congruent_pointer_middle,25,97,2,100,33.21,42.59,0.04,0.67,100,1744,Correct
congruent_pointer_middle,25,98,2,107,71.25,54.8,0.08,0.86,107,1037,Correct
congruent_pointer_middle,25,99,2,100,36.36,68.14,0.04,1.07,100,889,Correct
congruent_pointer_middle,25,100,1,106,38.55,18.0,0.04,0.28,102,1644,Incorrect
congruent_pointer_middle,25,101,1,102,36.04,68.79,0.04,1.08,102,1552,Correct
congruent_pointer_middle,25,102,1,106,53.87,32.17,0.06,0.51,106,1230,Correct
congruent_pointer_middle,25,103,2,107,67.79,45.16,0.08,0.71,107,1672,Correct
congruent_pointer_middle,25,104,1,106,48.16,21.46,0.05,0.34,106,3794,Correct
congruent_pointer_middle,25,105,2,107,39.24,13.92,0.04,0.22,100,1136,Incorrect
congruent_pointer_middle,25,106,1,106,33.37,21.76,0.04,0.34,102,1992,Incorrect
congruent_pointer_middle,25,107,1,106,65.01,46.15,0.07,0.72,106,813,Correct
congruent_pointer_middle,25,108,1,102,46.4,76.42,0.05,1.2,106,880,Incorrect
congruent_pointer_middle,25,109,1,102,63.87,82.48,0.07,1.3,106,777,Incorrect
congruent_pointer_middle,25,110,2,107,58.51,30.78,0.07,0.48,107,1422,Correct
congruent_pointer_middle,25,111,1,106,55.8,25.32,0.06,0.4,106,1335,Correct
congruent_pointer_middle,25,112,2,107,38.19,13.48,0.04,0.21,100,613,Incorrect
congruent_pointer_middle,25,113,1,102,24.52,39.7,0.03,0.62,102,943,Correct
congruent_pointer_middle,25,114,1,102,35.18,49.31,0.04,0.77,102,881,Correct
congruent_pointer_middle,25,115,1,102,35.78,58.77,0.04,0.92,102,1815,Correct
congruent_pointer_middle,25,116,1,106,49.22,24.63,0.06,0.39,106,1085,Correct
congruent_pointer_middle,25,117,2,107,59.79,28.56,0.07,0.45,107,1060,Correct
congruent_pointer_middle,25,118,1,102,68.58,85.18,0.08,1.34,106,724,Incorrect
congruent_pointer_middle,25,119,2,100,26.26,53.92,0.03,0.85,100,674,Correct
congruent_pointer_middle,25,120,1,106,86.32,64.6,0.1,1.01,106,786,Correct
congruent_pointer_middle,25,121,2,100,10.92,34.19,0.01,0.54,100,791,Correct
congruent_pointer_middle,25,122,1,102,34.34,57.81,0.04,0.91,102,665,Correct
congruent_pointer_middle,25,123,1,106,64.66,37.43,0.07,0.59,106,506,Correct
congruent_pointer_middle,25,124,1,102,39.22,53.0,0.04,0.83,102,900,Correct
congruent_pointer_middle,25,125,1,102,48.1,57.14,0.05,0.9,106,910,Incorrect
congruent_pointer_middle,25,126,2,100,39.65,52.85,0.04,0.83,100,770,Correct
congruent_pointer_middle,25,127,2,107,77.03,55.24,0.09,0.87,107,606,Correct
congruent_pointer_middle,25,128,2,107,51.25,30.92,0.06,0.49,107,1102,Correct
congruent_pointer_middle,25,129,1,106,75.15,57.72,0.08,0.91,106,584,Correct
congruent_pointer_middle,25,130,1,102,19.68,36.12,0.02,0.57,102,571,Correct
congruent_pointer_middle,25,131,2,100,36.81,47.87,0.04,0.75,100,832,Correct
congruent_pointer_middle,25,132,1,102,45.39,69.63,0.05,1.09,106,975,Incorrect
congruent_pointer_middle,25,133,2,107,73.32,48.36,0.08,0.76,107,604,Correct
congruent_pointer_middle,25,134,2,100,60.91,82.39,0.07,1.29,107,985,Incorrect
congruent_pointer_middle,25,135,1,102,61.57,71.92,0.07,1.13,106,808,Incorrect
congruent_pointer_middle,25,136,2,107,77.06,47.31,0.09,0.74,107,854,Correct
congruent_pointer_middle,25,137,2,107,65.32,32.03,0.07,0.5,107,980,Correct
congruent_pointer_middle,25,138,1,106,84.38,57.85,0.09,0.91,106,607,Correct
congruent_pointer_middle,25,139,2,100,39.76,47.51,0.04,0.75,100,454,Correct
congruent_pointer_middle,25,140,1,106,57.75,34.11,0.06,0.54,106,931,Correct
congruent_pointer_middle,25,141,2,107,36.27,15.93,0.04,0.25,100,551,Incorrect
congruent_pointer_middle,25,142,1,102,48.29,71.77,0.05,1.13,102,2244,Correct
congruent_pointer_middle,25,143,1,106,68.96,43.04,0.08,0.68,106,600,Correct
congruent_pointer_middle,25,144,1,106,61.93,50.04,0.07,0.79,106,648,Correct
congruent_pointer_middle,25,145,2,100,56.15,83.05,0.06,1.3,100,898,Correct
congruent_pointer_middle,25,146,2,107,47.57,31.14,0.05,0.49,100,621,Incorrect
congruent_pointer_middle,25,147,2,100,22.96,38.38,0.03,0.6,100,589,Correct
congruent_pointer_middle,25,148,2,107,57.71,41.72,0.06,0.66,107,801,Correct
congruent_pointer_middle,25,149,1,102,50.46,58.61,0.06,0.92,102,661,Correct
congruent_pointer_middle,25,150,1,106,67.81,46.01,0.08,0.72,106,620,Correct
congruent_pointer_middle,25,151,1,102,28.52,58.48,0.03,0.92,102,638,Correct
congruent_pointer_middle,25,152,1,106,48.51,22.92,0.05,0.36,106,749,Correct
congruent_pointer_middle,25,153,1,102,46.77,65.04,0.05,1.02,102,767,Correct
congruent_pointer_middle,25,154,2,107,37.23,11.35,0.04,0.18,100,696,Incorrect
congruent_pointer_middle,25,155,1,102,49.53,63.92,0.06,1.0,106,1132,Incorrect
congruent_pointer_middle,25,156,2,107,44.04,35.5,0.05,0.56,100,608,Incorrect
congruent_pointer_middle,25,157,1,106,53.25,45.91,0.06,0.72,106,586,Correct
congruent_pointer_middle,25,158,1,102,38.48,61.55,0.04,0.97,102,691,Correct
congruent_pointer_middle,25,159,1,106,77.76,49.81,0.09,0.78,106,567,Correct
congruent_pointer_middle,25,160,2,100,31.06,55.13,0.03,0.87,100,557,Correct
congruent_pointer_middle,25,161,2,100,42.54,61.95,0.05,0.97,100,777,Correct
congruent_pointer_middle,25,162,1,106,43.64,27.81,0.05,0.44,106,927,Correct
congruent_pointer_middle,25,163,1,106,87.35,69.82,0.1,1.1,106,755,Correct
congruent_pointer_middle,25,164,1,102,47.85,58.51,0.05,0.92,102,658,Correct
congruent_pointer_middle,25,165,2,107,75.57,49.13,0.08,0.77,107,585,Correct
congruent_pointer_middle,25,166,1,106,78.47,54.03,0.09,0.85,106,545,Correct
congruent_pointer_middle,25,167,1,106,47.98,24.34,0.05,0.38,102,543,Incorrect
congruent_pointer_middle,25,168,2,107,56.86,24.48,0.06,0.38,107,497,Correct
congruent_pointer_middle,25,169,1,102,50.48,61.86,0.06,0.97,106,779,Incorrect
congruent_pointer_middle,25,170,2,100,46.72,54.22,0.05,0.85,100,742,Correct
congruent_pointer_middle,25,171,1,102,13.03,37.03,0.01,0.58,102,665,Correct
congruent_pointer_middle,25,172,1,102,39.23,52.17,0.04,0.82,106,2178,Incorrect
congruent_pointer_middle,25,173,1,106,67.59,36.37,0.08,0.57,106,565,Correct
congruent_pointer_middle,25,174,1,106,49.63,19.4,0.06,0.3,106,1249,Correct
congruent_pointer_middle,25,175,1,106,42.82,14.78,0.05,0.23,102,698,Incorrect
congruent_pointer_middle,25,176,1,106,85.88,69.79,0.1,1.1,106,586,Correct
congruent_pointer_middle,25,177,2,107,82.45,57.52,0.09,0.9,107,685,Correct
congruent_pointer_middle,25,178,2,100,50.58,69.07,0.06,1.08,107,2821,Incorrect
congruent_pointer_middle,25,179,1,102,61.01,76.82,0.07,1.21,106,1303,Incorrect
congruent_pointer_middle,25,180,2,107,72.25,49.65,0.08,0.78,107,701,Correct
congruent_pointer_middle,25,181,2,100,16.48,40.74,0.02,0.64,100,575,Correct
congruent_pointer_middle,25,182,1,102,33.34,55.37,0.04,0.87,102,582,Correct
congruent_pointer_middle,25,183,2,100,49.32,78.38,0.06,1.23,100,847,Correct
congruent_pointer_middle,25,184,2,107,42.51,24.04,0.05,0.38,107,1179,Correct
congruent_pointer_middle,25,185,2,107,40.13,21.96,0.04,0.34,100,1496,Incorrect
congruent_pointer_middle,25,186,2,100,18.52,34.96,0.02,0.55,100,624,Correct
congruent_pointer_middle,25,187,1,106,48.39,36.15,0.05,0.57,106,833,Correct
congruent_pointer_middle,25,188,1,102,65.44,78.22,0.07,1.23,106,597,Incorrect
congruent_pointer_middle,25,189,2,107,44.13,23.13,0.05,0.36,107,1160,Correct
congruent_pointer_middle,25,190,2,107,72.21,59.29,0.08,0.93,107,1835,Correct
congruent_pointer_middle,25,191,1,102,56.26,68.68,0.06,1.08,106,1425,Incorrect
congruent_pointer_middle,25,192,1,106,59.75,41.3,0.07,0.65,102,958,Incorrect
congruent_pointer_middle,25,193,2,107,65.08,56.54,0.07,0.89,107,665,Correct
congruent_pointer_middle,25,194,1,106,54.46,46.49,0.06,0.73,106,1020,Correct
congruent_pointer_middle,25,195,2,100,48.01,71.98,0.05,1.13,100,792,Correct
congruent_pointer_middle,25,196,1,106,77.45,55.98,0.09,0.88,106,1146,Correct
congruent_pointer_middle,25,197,1,102,54.79,68.51,0.06,1.08,106,3653,Incorrect
congruent_pointer_middle,25,198,2,107,56.74,42.29,0.06,0.66,100,717,Incorrect
congruent_pointer_middle,25,199,2,100,28.31,41.83,0.03,0.66,100,647,Correct
congruent_pointer_middle,25,200,1,102,47.58,54.64,0.05,0.86,106,730,Incorrect
congruent_pointer_middle,25,201,2,100,13.02,37.8,0.01,0.59,100,636,Correct
congruent_pointer_middle,25,202,2,107,53.37,32.23,0.06,0.51,100,875,Incorrect
congruent_pointer_middle,25,203,2,107,42.8,28.35,0.05,0.45,107,2288,Correct
congruent_pointer_middle,25,204,1,106,68.08,56.74,0.08,0.89,106,658,Correct
congruent_pointer_middle,25,205,2,107,88.7,66.29,0.1,1.04,107,742,Correct
congruent_pointer_middle,25,206,2,100,42.56,58.04,0.05,0.91,100,1196,Correct
congruent_pointer_middle,25,207,2,100,27.2,45.03,0.03,0.71,100,608,Correct
congruent_pointer_middle,25,208,1,106,68.45,58.19,0.08,0.91,106,608,Correct
congruent_pointer_middle,25,209,2,100,29.07,58.19,0.03,0.91,100,832,Correct
congruent_pointer_middle,25,210,1,102,21.36,40.64,0.02,0.64,102,554,Correct
congruent_pointer_middle,25,211,2,100,47.38,61.07,0.05,0.96,100,1816,Correct
congruent_pointer_middle,25,212,1,106,44.53,22.28,0.05,0.35,106,1402,Correct
congruent_pointer_middle,25,213,2,100,35.73,46.19,0.04,0.73,100,1007,Correct
congruent_pointer_middle,25,214,2,100,18.37,47.32,0.02,0.74,100,700,Correct
congruent_pointer_middle,25,215,2,107,46.76,31.19,0.05,0.49,107,1091,Correct
congruent_pointer_middle,25,216,1,102,30.6,56.83,0.03,0.89,102,805,Correct
congruent_pointer_middle,25,217,2,100,38.09,60.59,0.04,0.95,107,1043,Incorrect
congruent_pointer_middle,25,218,2,100,11.07,34.29,0.01,0.54,100,616,Correct
congruent_pointer_middle,25,219,2,107,54.64,43.76,0.06,0.69,107,618,Correct
congruent_pointer_middle,25,220,2,100,64.87,87.55,0.07,1.38,107,618,Incorrect
congruent_pointer_middle,25,221,2,107,65.73,46.42,0.07,0.73,107,1830,Correct
congruent_pointer_middle,25,222,1,102,29.43,47.3,0.03,0.74,102,623,Correct
congruent_pointer_middle,25,223,1,102,17.4,45.83,0.02,0.72,102,610,Correct
congruent_pointer_middle,25,224,2,100,28.26,42.86,0.03,0.67,100,831,Correct
congruent_pointer_middle,25,225,2,107,46.29,18.72,0.05,0.29,107,633,Correct
congruent_pointer_middle,25,226,2,107,36.52,16.24,0.04,0.26,100,1903,Incorrect
congruent_pointer_middle,25,227,2,107,77.69,47.62,0.09,0.75,107,653,Correct
congruent_pointer_middle,25,228,2,107,45.42,32.35,0.05,0.51,107,883,Correct
congruent_pointer_middle,25,229,1,106,63.21,48.63,0.07,0.76,106,638,Correct
congruent_pointer_middle,25,230,1,106,87.41,66.74,0.1,1.05,106,583,Correct
congruent_pointer_middle,25,231,1,102,59.2,82.86,0.07,1.3,106,2630,Incorrect
congruent_pointer_middle,25,232,1,106,55.86,37.63,0.06,0.59,106,736,Correct
congruent_pointer_middle,25,233,2,107,45.77,31.31,0.05,0.49,107,1309,Correct
congruent_pointer_middle,25,234,1,102,47.99,78.76,0.05,1.24,102,2313,Correct
congruent_pointer_middle,25,235,2,100,53.59,75.28,0.06,1.18,107,728,Incorrect
congruent_pointer_middle,25,236,2,107,40.53,27.96,0.05,0.44,100,708,Incorrect
congruent_pointer_middle,25,237,1,102,33.9,56.33,0.04,0.88,102,718,Correct
congruent_pointer_middle,25,238,2,100,57.41,79.87,0.06,1.25,107,715,Incorrect
congruent_pointer_middle,25,239,2,100,27.61,45.05,0.03,0.71,100,695,Correct
congruent_pointer_middle,25,240,2,107,89.73,67.55,0.1,1.06,107,592,Correct
congruent_pointer_middle,25,241,2,100,48.24,59.73,0.05,0.94,100,1051,Correct
congruent_pointer_middle,25,242,2,107,48.63,24.06,0.05,0.38,107,1217,Incorrect
congruent_pointer_middle,25,243,1,106,63.63,38.04,0.07,0.6,106,582,Correct
congruent_pointer_middle,25,244,2,100,19.16,36.99,0.02,0.58,100,564,Correct
congruent_pointer_middle,25,245,2,100,18.05,42.26,0.02,0.66,100,404,Correct
congruent_pointer_middle,25,246,1,102,62.28,74.51,0.07,1.17,106,1514,Incorrect
congruent_pointer_middle,25,247,2,107,56.88,44.18,0.06,0.69,107,649,Correct
congruent_pointer_middle,25,248,1,106,57.03,46.16,0.06,0.73,106,775,Correct
congruent_pointer_middle,25,249,1,102,24.57,49.93,0.03,0.78,102,1095,Correct
congruent_pointer_middle,25,250,2,100,30.45,57.98,0.03,0.91,100,588,Correct
congruent_pointer_middle,25,251,2,100,48.76,71.65,0.05,1.13,100,2567,Correct
congruent_pointer_middle,25,252,2,100,14.21,33.26,0.02,0.52,100,541,Correct
congruent_pointer_middle,25,253,1,102,35.24,66.22,0.04,1.04,102,987,Correct
congruent_pointer_middle,25,254,2,107,44.2,35.14,0.05,0.55,107,785,Correct
congruent_pointer_middle,25,255,1,106,45.77,31.66,0.05,0.5,106,817,Correct
congruent_pointer_middle,25,256,1,102,51.43,70.97,0.06,1.11,106,651,Incorrect
congruent_pointer_middle,25,257,2,100,32.82,43.85,0.04,0.69,100,646,Correct
congruent_pointer_middle,25,258,1,102,11.28,37.41,0.01,0.59,102,656,Correct
congruent_pointer_middle,25,259,1,106,79.65,64.11,0.09,1.01,106,582,Correct
congruent_pointer_middle,25,260,2,107,39.01,11.79,0.04,0.19,100,894,Incorrect
congruent_pointer_middle,25,261,2,100,42.63,54.69,0.05,0.86,107,722,Incorrect
congruent_pointer_middle,25,262,1,106,66.85,54.91,0.07,0.86,106,529,Correct
congruent_pointer_middle,25,263,1,106,70.62,55.29,0.08,0.87,106,678,Correct
congruent_pointer_middle,25,264,1,102,49.99,63.92,0.06,1.0,106,1264,Incorrect
congruent_pointer_middle,25,265,1,102,37.29,66.1,0.04,1.04,102,1291,Correct
congruent_pointer_middle,25,266,1,106,46.64,39.35,0.05,0.62,106,1098,Correct
congruent_pointer_middle,25,267,2,100,25.57,48.86,0.03,0.77,100,968,Correct
congruent_pointer_middle,25,268,1,102,18.91,45.96,0.02,0.72,102,584,Correct
congruent_pointer_middle,25,269,2,107,49.21,39.96,0.06,0.63,107,716,Correct
congruent_pointer_middle,25,270,2,100,41.08,56.59,0.05,0.89,100,1068,Correct
congruent_pointer_middle,25,271,2,107,56.58,48.4,0.06,0.76,107,890,Correct
congruent_pointer_middle,25,272,1,106,43.33,27.04,0.05,0.42,106,1502,Correct
congruent_pointer_middle,25,273,2,107,33.27,11.94,0.04,0.19,100,755,Incorrect
congruent_pointer_middle,25,274,2,107,54.74,23.39,0.06,0.37,107,657,Correct
congruent_pointer_middle,25,275,1,102,35.35,50.78,0.04,0.8,102,542,Correct
congruent_pointer_middle,25,276,2,107,51.1,35.48,0.06,0.56,107,527,Correct
congruent_pointer_middle,25,277,1,106,79.45,63.34,0.09,1.0,106,621,Correct
congruent_pointer_middle,25,278,2,100,14.92,36.73,0.02,0.58,100,610,Correct
congruent_pointer_middle,25,279,2,100,56.25,83.0,0.06,1.3,107,798,Incorrect
congruent_pointer_middle,25,280,1,106,50.16,22.58,0.06,0.35,102,858,Incorrect
congruent_pointer_middle,25,281,1,102,44.48,59.31,0.05,0.93,106,906,Incorrect
congruent_pointer_middle,25,282,2,100,55.84,67.61,0.06,1.06,107,711,Incorrect
congruent_pointer_middle,25,283,1,106,65.87,39.0,0.07,0.61,106,592,Correct
congruent_pointer_middle,25,284,2,107,78.22,60.14,0.09,0.94,107,588,Correct
congruent_pointer_middle,25,285,1,106,49.83,29.08,0.06,0.46,102,721,Incorrect
congruent_pointer_middle,25,286,1,102,38.09,45.57,0.04,0.72,102,624,Correct
congruent_pointer_middle,25,287,1,102,48.8,58.32,0.05,0.92,106,787,Incorrect
congruent_pointer_middle,25,288,2,107,70.1,43.11,0.08,0.68,107,563,Correct
congruent_pointer_middle,25,289,2,107,44.72,29.72,0.05,0.47,107,698,Correct
congruent_pointer_middle,25,290,1,106,80.57,55.49,0.09,0.87,106,611,Correct
congruent_pointer_middle,25,291,2,100,26.47,55.57,0.03,0.87,100,545,Correct
congruent_pointer_middle,25,292,2,107,55.14,43.63,0.06,0.69,107,709,Correct
congruent_pointer_middle,25,293,2,100,19.14,49.66,0.02,0.78,100,572,Correct
congruent_pointer_middle,25,294,2,100,45.78,64.38,0.05,1.01,107,667,Incorrect
congruent_pointer_middle,25,295,1,102,59.68,71.77,0.07,1.13,106,526,Incorrect
congruent_pointer_middle,25,296,2,107,66.56,48.21,0.07,0.76,107,617,Correct
congruent_pointer_middle,25,297,2,107,70.07,48.06,0.08,0.75,107,612,Correct
congruent_pointer_middle,25,298,1,106,45.48,23.28,0.05,0.37,102,734,Incorrect
congruent_pointer_middle,25,299,2,107,70.36,45.34,0.08,0.71,107,574,Correct
congruent_pointer_middle,25,300,2,100,27.05,41.61,0.03,0.65,100,747,Correct
congruent_pointer_middle,25,301,2,107,69.89,60.03,0.08,0.94,107,617,Correct
congruent_pointer_middle,25,302,2,107,78.97,48.01,0.09,0.75,107,648,Correct
congruent_pointer_middle,25,303,2,100,40.49,58.98,0.05,0.93,107,1284,Incorrect
congruent_pointer_middle,25,304,1,102,39.29,58.78,0.04,0.92,102,961,Correct
congruent_pointer_middle,25,305,1,106,79.39,53.73,0.09,0.84,106,740,Correct
congruent_pointer_middle,25,306,2,107,76.17,60.43,0.09,0.95,107,617,Correct
congruent_pointer_middle,25,307,1,106,79.14,52.16,0.09,0.82,106,586,Correct
congruent_pointer_middle,25,308,1,102,55.33,67.99,0.06,1.07,106,1438,Incorrect
congruent_pointer_middle,25,309,1,106,76.55,61.51,0.09,0.97,106,668,Correct
congruent_pointer_middle,25,310,2,100,67.43,80.66,0.08,1.27,107,908,Incorrect
congruent_pointer_middle,25,311,2,100,24.27,50.21,0.03,0.79,100,759,Correct
congruent_pointer_middle,25,312,2,100,49.52,72.39,0.06,1.14,107,788,Incorrect
congruent_pointer_middle,25,313,2,107,80.57,63.34,0.09,0.99,107,608,Correct
congruent_pointer_middle,25,314,1,102,68.17,88.89,0.08,1.4,106,491,Incorrect
congruent_pointer_middle,25,315,1,102,59.87,86.67,0.07,1.36,106,678,Incorrect
congruent_pointer_middle,25,316,1,102,22.43,52.41,0.03,0.82,102,476,Correct
congruent_pointer_middle,25,317,1,102,30.97,57.35,0.03,0.9,102,844,Correct
congruent_pointer_middle,25,318,2,100,39.89,47.52,0.04,0.75,107,974,Incorrect
congruent_pointer_middle,25,319,2,100,66.83,79.34,0.07,1.25,107,678,Incorrect
congruent_pointer_middle,25,320,2,107,53.22,26.2,0.06,0.41,100,755,Incorrect
congruent_pointer_middle,25,321,2,100,20.36,34.25,0.02,0.54,100,595,Correct
congruent_pointer_middle,25,322,2,107,50.01,24.25,0.06,0.38,107,640,Correct
congruent_pointer_middle,25,323,1,102,57.29,81.41,0.06,1.28,106,635,Incorrect
congruent_pointer_middle,25,324,1,106,63.51,39.85,0.07,0.63,106,981,Correct
congruent_pointer_middle,25,325,1,102,44.7,74.39,0.05,1.17,102,709,Correct
congruent_pointer_middle,25,326,2,107,52.87,26.03,0.06,0.41,107,780,Correct
congruent_pointer_middle,25,327,1,102,68.35,85.66,0.08,1.35,106,714,Incorrect
congruent_pointer_middle,25,328,2,107,83.47,61.24,0.09,0.96,107,657,Correct
congruent_pointer_middle,25,329,2,100,12.02,36.34,0.01,0.57,100,455,Correct
congruent_pointer_middle,25,330,1,106,85.25,57.95,0.1,0.91,106,572,Correct
congruent_pointer_middle,25,331,1,106,81.8,50.74,0.09,0.8,102,358,Incorrect
congruent_pointer_middle,25,332,2,107,54.27,30.95,0.06,0.49,107,1939,Correct
congruent_pointer_middle,25,333,1,102,27.22,41.38,0.03,0.65,102,889,Correct
congruent_pointer_middle,25,334,1,102,20.82,33.61,0.02,0.53,102,594,Correct
congruent_pointer_middle,25,335,2,100,44.91,54.27,0.05,0.85,100,1509,Correct
congruent_pointer_middle,25,336,1,102,54.71,64.44,0.06,1.01,106,580,Incorrect
congruent_pointer_middle,25,337,1,102,10.89,30.93,0.01,0.49,102,593,Correct
congruent_pointer_middle,25,338,1,102,45.97,56.18,0.05,0.88,106,976,Incorrect
congruent_pointer_middle,25,339,2,100,46.87,57.06,0.05,0.9,100,1499,Correct
congruent_pointer_middle,25,340,2,100,30.82,58.01,0.03,0.91,100,608,Correct
congruent_pointer_middle,25,341,2,100,23.41,37.12,0.03,0.58,100,655,Correct
congruent_pointer_middle,25,342,1,102,25.09,46.35,0.03,0.73,102,666,Correct
congruent_pointer_middle,25,343,2,100,24.44,46.68,0.03,0.73,100,1626,Correct
congruent_pointer_middle,25,344,1,106,55.39,44.44,0.06,0.7,106,1164,Correct
congruent_pointer_middle,25,345,1,102,23.51,36.91,0.03,0.58,102,831,Correct
congruent_pointer_middle,25,346,1,106,74.87,43.94,0.08,0.69,106,752,Correct
congruent_pointer_middle,25,347,1,102,51.88,65.32,0.06,1.03,102,1258,Correct
congruent_pointer_middle,25,348,1,106,69.25,46.96,0.08,0.74,106,798,Correct
congruent_pointer_middle,25,349,1,102,31.45,63.41,0.04,1.0,102,2082,Correct
congruent_pointer_middle,25,350,1,106,55.2,36.17,0.06,0.57,106,1220,Correct
congruent_pointer_middle,25,351,1,102,27.91,49.84,0.03,0.78,102,805,Correct
congruent_pointer_middle,25,352,2,107,64.41,33.7,0.07,0.53,107,665,Correct
congruent_pointer_middle,25,353,2,107,49.74,30.29,0.06,0.48,100,1899,Incorrect
congruent_pointer_middle,25,354,2,107,48.97,38.01,0.05,0.6,107,685,Correct
congruent_pointer_middle,25,355,1,102,36.66,60.35,0.04,0.95,102,635,Correct
congruent_pointer_middle,25,356,1,102,64.68,79.14,0.07,1.24,106,790,Incorrect
congruent_pointer_middle,25,357,2,100,52.4,68.57,0.06,1.08,100,665,Correct
congruent_pointer_middle,25,358,1,102,47.3,67.37,0.05,1.06,102,1811,Correct
congruent_pointer_middle,25,359,1,102,24.77,55.01,0.03,0.86,102,572,Correct
congruent_pointer_middle,25,360,2,100,19.55,40.55,0.02,0.64,100,588,Correct
congruent_pointer_middle,25,361,1,106,47.5,20.8,0.05,0.33,106,651,Correct
congruent_pointer_middle,25,362,1,102,21.39,37.7,0.02,0.59,102,603,Correct
congruent_pointer_middle,25,363,1,106,70.77,59.56,0.08,0.94,106,709,Correct
congruent_pointer_middle,25,364,1,106,54.23,31.53,0.06,0.5,106,1050,Correct
congruent_pointer_middle,25,365,1,106,65.24,53.54,0.07,0.84,106,733,Correct
congruent_pointer_middle,25,366,1,102,45.93,56.64,0.05,0.89,102,662,Correct
congruent_pointer_middle,25,367,2,100,19.64,48.57,0.02,0.76,100,583,Correct
congruent_pointer_middle,25,368,2,107,70.43,48.78,0.08,0.77,107,509,Correct
congruent_pointer_middle,25,369,2,107,34.77,23.17,0.04,0.36,100,411,Incorrect
congruent_pointer_middle,25,370,1,106,84.54,67.85,0.09,1.07,106,657,Correct
congruent_pointer_middle,25,371,1,102,29.27,55.26,0.03,0.87,102,547,Correct
congruent_pointer_middle,25,372,2,100,10.52,32.45,0.01,0.51,100,539,Correct
congruent_pointer_middle,25,373,2,100,62.29,77.53,0.07,1.22,107,796,Incorrect
congruent_pointer_middle,25,374,1,106,59.41,50.13,0.07,0.79,106,1003,Correct
congruent_pointer_middle,25,375,1,106,50.86,20.2,0.06,0.32,102,717,Incorrect
congruent_pointer_middle,25,376,1,106,59.38,37.4,0.07,0.59,106,640,Correct
congruent_pointer_middle,25,377,1,106,84.06,61.01,0.09,0.96,106,665,Correct
congruent_pointer_middle,25,378,1,102,61.47,78.61,0.07,1.23,106,776,Incorrect
congruent_pointer_middle,25,379,2,107,49.92,32.7,0.06,0.51,107,973,Correct
congruent_pointer_middle,25,380,1,102,40.21,69.68,0.04,1.09,102,760,Correct
congruent_pointer_middle,25,381,2,107,59.18,49.11,0.07,0.77,107,1203,Correct
congruent_pointer_middle,25,382,1,102,61.74,71.67,0.07,1.13,106,642,Incorrect
congruent_pointer_middle,25,383,1,106,45.57,30.34,0.05,0.48,102,658,Incorrect
congruent_pointer_middle,25,384,2,100,49.25,80.23,0.06,1.26,100,684,Correct
congruent_pointer_middle,25,385,2,100,35.31,55.76,0.04,0.88,100,968,Correct
congruent_pointer_middle,25,386,2,100,49.2,80.55,0.06,1.27,100,1778,Correct
congruent_pointer_middle,25,387,1,106,76.33,63.66,0.09,1.0,106,617,Correct
congruent_pointer_middle,25,388,2,100,21.13,48.32,0.02,0.76,100,629,Correct
congruent_pointer_middle,25,389,2,107,64.11,35.69,0.07,0.56,107,992,Correct
congruent_pointer_middle,25,390,2,100,26.86,58.71,0.03,0.92,100,716,Correct
congruent_pointer_middle,25,391,1,106,72.74,53.67,0.08,0.84,106,599,Correct
congruent_pointer_middle,25,392,2,100,34.92,49.83,0.04,0.78,100,815,Correct
congruent_pointer_middle,25,393,2,107,61.81,34.22,0.07,0.54,107,568,Correct
congruent_pointer_middle,25,394,1,102,66.51,88.13,0.07,1.38,102,860,Correct
congruent_pointer_middle,25,395,2,100,32.98,44.62,0.04,0.7,100,487,Correct
congruent_pointer_middle,25,396,1,102,17.16,40.21,0.02,0.63,102,496,Correct
congruent_pointer_middle,25,397,1,106,32.8,16.77,0.04,0.26,102,559,Incorrect
congruent_pointer_middle,25,398,2,100,15.2,37.13,0.02,0.58,100,614,Correct
