condition,subject,trial,sub_task,cat,x,y,xt,yt,resp,rt,fb
incongruent_pointer_middle,34,0,1,102,18.16,40.31,0.02,0.63,102,3486,Correct
incongruent_pointer_middle,34,1,2,100,85.0,59.71,0.1,0.94,100,3901,Correct
incongruent_pointer_middle,34,2,1,102,20.22,38.13,0.02,0.6,102,2688,Correct
incongruent_pointer_middle,34,3,2,107,33.86,64.96,0.04,1.02,100,1463,Incorrect
incongruent_pointer_middle,34,4,2,100,47.94,32.09,0.05,0.5,100,3011,Correct
incongruent_pointer_middle,34,5,2,107,16.7,43.57,0.02,0.68,107,1273,Correct
incongruent_pointer_middle,34,6,1,106,66.14,38.54,0.07,0.61,102,1597,Incorrect
incongruent_pointer_middle,34,7,2,107,41.44,67.24,0.05,1.06,100,1530,Incorrect
incongruent_pointer_middle,34,8,2,107,34.0,56.94,0.04,0.89,107,1705,Correct
incongruent_pointer_middle,34,9,2,107,50.04,76.68,0.06,1.2,107,2723,Correct
incongruent_pointer_middle,34,10,2,100,62.78,52.45,0.07,0.82,107,2477,Incorrect
incongruent_pointer_middle,34,11,2,107,20.84,50.7,0.02,0.8,100,1959,Incorrect
incongruent_pointer_middle,34,12,2,100,49.85,39.71,0.06,0.62,100,1600,Correct
incongruent_pointer_middle,34,13,2,100,67.3,40.04,0.08,0.63,100,2530,Correct
incongruent_pointer_middle,34,14,2,107,38.31,68.97,0.04,1.08,107,1295,Correct
incongruent_pointer_middle,34,15,2,100,32.85,19.69,0.04,0.31,100,1654,Correct
incongruent_pointer_middle,34,16,1,106,65.53,55.84,0.07,0.88,106,1459,Correct
incongruent_pointer_middle,34,17,2,100,61.05,33.57,0.07,0.53,100,1174,Correct
incongruent_pointer_middle,34,18,2,107,50.12,72.74,0.06,1.14,107,2549,Correct
incongruent_pointer_middle,34,19,1,102,46.86,77.85,0.05,1.22,106,1220,Incorrect
incongruent_pointer_middle,34,20,2,107,59.42,68.48,0.07,1.08,100,1959,Incorrect
incongruent_pointer_middle,34,21,2,100,50.43,34.94,0.06,0.55,100,807,Correct
incongruent_pointer_middle,34,22,1,102,43.25,62.67,0.05,0.98,106,1167,Incorrect
incongruent_pointer_middle,34,23,1,106,40.31,22.2,0.05,0.35,102,945,Incorrect
incongruent_pointer_middle,34,24,2,100,59.08,38.89,0.07,0.61,100,1379,Correct
incongruent_pointer_middle,34,25,2,107,46.76,75.04,0.05,1.18,100,1405,Incorrect
incongruent_pointer_middle,34,26,1,106,61.75,37.12,0.07,0.58,102,925,Incorrect
incongruent_pointer_middle,34,27,1,102,35.61,62.28,0.04,0.98,106,1076,Incorrect
incongruent_pointer_middle,34,28,2,107,18.21,40.39,0.02,0.63,107,1215,Correct
incongruent_pointer_middle,34,29,1,106,58.16,43.23,0.07,0.68,102,1050,Incorrect
incongruent_pointer_middle,34,30,2,107,47.39,58.59,0.05,0.92,107,1100,Correct
incongruent_pointer_middle,34,31,1,102,36.88,51.14,0.04,0.8,102,1424,Correct
incongruent_pointer_middle,34,32,2,107,33.04,58.2,0.04,0.91,100,2956,Incorrect
incongruent_pointer_middle,34,33,2,100,49.46,31.22,0.06,0.49,100,1092,Correct
incongruent_pointer_middle,34,34,1,106,43.99,35.17,0.05,0.55,102,1417,Incorrect
incongruent_pointer_middle,34,35,1,106,61.43,37.75,0.07,0.59,102,1143,Incorrect
incongruent_pointer_middle,34,36,1,106,54.82,32.08,0.06,0.5,106,868,Correct
incongruent_pointer_middle,34,37,1,106,34.91,16.74,0.04,0.26,106,1034,Correct
incongruent_pointer_middle,34,38,1,106,50.67,20.3,0.06,0.32,102,1836,Incorrect
incongruent_pointer_middle,34,39,1,106,62.8,54.51,0.07,0.86,106,930,Correct
incongruent_pointer_middle,34,40,2,107,31.0,41.65,0.03,0.65,107,1727,Correct
incongruent_pointer_middle,34,41,1,102,46.1,60.6,0.05,0.95,106,1216,Incorrect
incongruent_pointer_middle,34,42,1,102,38.73,71.62,0.04,1.12,102,1089,Correct
incongruent_pointer_middle,34,43,2,107,52.66,63.1,0.06,0.99,107,1734,Correct
incongruent_pointer_middle,34,44,1,102,46.62,55.05,0.05,0.86,102,1303,Correct
incongruent_pointer_middle,34,45,2,107,67.11,89.6,0.08,1.41,100,2420,Incorrect
incongruent_pointer_middle,34,46,2,107,30.63,63.05,0.03,0.99,107,4605,Correct
incongruent_pointer_middle,34,47,2,100,47.45,19.14,0.05,0.3,100,1787,Correct
incongruent_pointer_middle,34,48,2,107,50.44,77.43,0.06,1.22,100,942,Incorrect
incongruent_pointer_middle,34,49,1,106,54.25,32.03,0.06,0.5,106,1400,Correct
incongruent_pointer_middle,34,50,1,106,52.97,45.99,0.06,0.72,106,862,Correct
incongruent_pointer_middle,34,51,1,102,56.87,73.02,0.06,1.15,106,1405,Incorrect
incongruent_pointer_middle,34,52,1,102,44.56,53.17,0.05,0.84,106,1106,Incorrect
incongruent_pointer_middle,34,53,2,100,75.23,62.16,0.08,0.98,100,2109,Correct
incongruent_pointer_middle,34,54,2,100,73.96,57.98,0.08,0.91,100,1277,Correct
incongruent_pointer_middle,34,55,1,102,22.76,43.44,0.03,0.68,102,2297,Correct
incongruent_pointer_middle,34,56,1,102,39.82,63.78,0.04,1.0,102,1458,Correct
incongruent_pointer_middle,34,57,2,100,74.68,51.78,0.08,0.81,100,1226,Correct
incongruent_pointer_middle,34,58,2,100,72.0,59.29,0.08,0.93,100,1014,Correct
incongruent_pointer_middle,34,59,1,102,67.81,82.67,0.08,1.3,106,1736,Incorrect
incongruent_pointer_middle,34,60,2,107,38.71,46.5,0.04,0.73,107,2985,Correct
incongruent_pointer_middle,34,61,1,106,70.07,47.5,0.08,0.75,106,1305,Correct
incongruent_pointer_middle,34,62,1,102,67.45,81.07,0.08,1.27,106,1077,Incorrect
incongruent_pointer_middle,34,63,2,107,28.39,42.21,0.03,0.66,107,2042,Correct
incongruent_pointer_middle,34,64,2,100,81.11,62.39,0.09,0.98,107,4388,Incorrect
incongruent_pointer_middle,34,65,2,107,41.33,63.55,0.05,1.0,107,1866,Correct
incongruent_pointer_middle,34,66,1,106,49.64,42.8,0.06,0.67,106,3116,Correct
incongruent_pointer_middle,34,67,1,106,42.43,17.36,0.05,0.27,102,1902,Incorrect
incongruent_pointer_middle,34,68,1,102,23.75,54.57,0.03,0.86,102,2167,Correct
incongruent_pointer_middle,34,69,2,107,35.5,45.18,0.04,0.71,107,2451,Correct
incongruent_pointer_middle,34,70,1,102,63.26,82.46,0.07,1.3,106,2778,Incorrect
incongruent_pointer_middle,34,71,2,107,66.82,82.47,0.07,1.3,100,2438,Incorrect
incongruent_pointer_middle,34,72,1,106,66.84,37.13,0.07,0.58,106,4218,Correct
incongruent_pointer_middle,34,73,1,102,48.82,71.74,0.05,1.13,102,2468,Correct
incongruent_pointer_middle,34,74,1,102,21.33,37.38,0.02,0.59,102,1276,Correct
incongruent_pointer_middle,34,75,2,107,44.93,67.5,0.05,1.06,107,2195,Correct
incongruent_pointer_middle,34,76,2,100,33.48,15.23,0.04,0.24,107,1936,Incorrect
incongruent_pointer_middle,34,77,1,102,26.49,46.31,0.03,0.73,102,2230,Correct
incongruent_pointer_middle,34,78,2,100,73.0,53.39,0.08,0.84,100,2293,Correct
incongruent_pointer_middle,34,79,1,102,12.56,38.46,0.01,0.6,106,958,Incorrect
incongruent_pointer_middle,34,80,2,100,76.69,65.31,0.09,1.03,100,987,Correct
incongruent_pointer_middle,34,81,1,106,85.3,56.42,0.1,0.89,106,1428,Correct
incongruent_pointer_middle,34,82,1,106,50.31,28.42,0.06,0.45,102,2305,Incorrect
incongruent_pointer_middle,34,83,1,102,38.54,53.3,0.04,0.84,102,2239,Correct
incongruent_pointer_middle,34,84,2,100,40.86,24.09,0.05,0.38,100,1866,Correct
incongruent_pointer_middle,34,85,1,106,72.65,60.13,0.08,0.94,106,891,Correct
incongruent_pointer_middle,34,86,2,100,34.32,11.73,0.04,0.18,107,2003,Incorrect
incongruent_pointer_middle,34,87,1,102,19.29,42.67,0.02,0.67,102,1181,Correct
incongruent_pointer_middle,34,88,1,102,61.14,75.4,0.07,1.18,106,3320,Incorrect
incongruent_pointer_middle,34,89,1,106,70.18,50.3,0.08,0.79,106,2123,Correct
incongruent_pointer_middle,34,90,1,102,43.16,52.04,0.05,0.82,102,1535,Correct
incongruent_pointer_middle,34,91,2,100,88.73,66.82,0.1,1.05,100,656,Correct
incongruent_pointer_middle,34,92,1,106,47.68,36.77,0.05,0.58,102,2562,Incorrect
incongruent_pointer_middle,34,93,2,107,54.94,74.95,0.06,1.18,100,1637,Incorrect
incongruent_pointer_middle,34,94,1,106,58.96,42.12,0.07,0.66,102,2697,Incorrect
incongruent_pointer_middle,34,95,2,107,57.98,79.78,0.06,1.25,100,1236,Incorrect
incongruent_pointer_middle,34,96,2,100,30.5,13.05,0.03,0.21,107,1265,Incorrect
incongruent_pointer_middle,34,97,1,106,30.47,11.79,0.03,0.19,106,3552,Correct
incongruent_pointer_middle,34,98,1,102,45.41,66.2,0.05,1.04,102,2037,Correct
incongruent_pointer_middle,34,99,1,102,63.94,78.11,0.07,1.23,102,1873,Correct
incongruent_pointer_middle,34,100,1,102,50.54,81.0,0.06,1.27,102,2243,Correct
incongruent_pointer_middle,34,101,1,102,53.12,61.4,0.06,0.96,102,970,Correct
incongruent_pointer_middle,34,102,2,107,35.0,65.77,0.04,1.03,100,4907,Incorrect
incongruent_pointer_middle,34,103,1,106,87.75,62.28,0.1,0.98,102,1095,Incorrect
incongruent_pointer_middle,34,104,2,100,43.93,26.7,0.05,0.42,100,2084,Correct
incongruent_pointer_middle,34,105,2,100,63.13,47.44,0.07,0.75,100,1386,Correct
incongruent_pointer_middle,34,106,1,106,76.24,55.2,0.09,0.87,102,3573,Incorrect
incongruent_pointer_middle,34,107,2,107,25.05,42.68,0.03,0.67,100,921,Incorrect
incongruent_pointer_middle,34,108,2,107,40.45,58.9,0.05,0.93,100,2247,Incorrect
incongruent_pointer_middle,34,109,1,106,77.24,51.05,0.09,0.8,102,5407,Incorrect
incongruent_pointer_middle,34,110,1,102,67.1,89.97,0.08,1.41,102,1644,Correct
incongruent_pointer_middle,34,111,1,106,57.11,30.9,0.06,0.49,106,1126,Correct
incongruent_pointer_middle,34,112,1,102,44.16,58.23,0.05,0.91,106,3011,Incorrect
incongruent_pointer_middle,34,113,1,106,80.0,50.56,0.09,0.79,106,1061,Correct
incongruent_pointer_middle,34,114,2,107,51.0,78.32,0.06,1.23,100,2662,Incorrect
incongruent_pointer_middle,34,115,2,107,45.9,75.88,0.05,1.19,100,4226,Incorrect
incongruent_pointer_middle,34,116,1,102,19.51,48.27,0.02,0.76,106,1675,Incorrect
incongruent_pointer_middle,34,117,2,107,63.14,73.39,0.07,1.15,100,2777,Incorrect
incongruent_pointer_middle,34,118,2,100,57.65,28.44,0.06,0.45,107,1958,Incorrect
incongruent_pointer_middle,34,119,2,107,12.63,39.8,0.01,0.63,107,1131,Correct
incongruent_pointer_middle,34,120,1,102,40.1,49.15,0.04,0.77,106,2021,Incorrect
incongruent_pointer_middle,34,121,2,100,46.84,35.37,0.05,0.56,100,3499,Correct
incongruent_pointer_middle,34,122,1,102,31.28,61.61,0.04,0.97,106,2519,Incorrect
incongruent_pointer_middle,34,123,1,102,56.43,85.55,0.06,1.34,106,2146,Incorrect
incongruent_pointer_middle,34,124,1,102,23.48,51.07,0.03,0.8,102,1158,Correct
incongruent_pointer_middle,34,125,2,107,46.57,77.26,0.05,1.21,100,1117,Incorrect
incongruent_pointer_middle,34,126,2,100,41.82,15.64,0.05,0.25,100,4247,Correct
incongruent_pointer_middle,34,127,2,107,64.31,83.55,0.07,1.31,107,2322,Correct
incongruent_pointer_middle,34,128,1,106,51.1,31.35,0.06,0.49,106,1492,Correct
incongruent_pointer_middle,34,129,1,102,28.69,38.4,0.03,0.6,106,5362,Incorrect
incongruent_pointer_middle,34,130,2,100,76.52,59.26,0.09,0.93,107,2559,Incorrect
incongruent_pointer_middle,34,131,2,107,23.13,49.76,0.03,0.78,100,3002,Incorrect
incongruent_pointer_middle,34,132,1,106,47.54,34.28,0.05,0.54,106,2743,Correct
incongruent_pointer_middle,34,133,1,106,39.41,24.38,0.04,0.38,106,1401,Correct
incongruent_pointer_middle,34,134,2,107,63.8,77.3,0.07,1.21,100,1729,Incorrect
incongruent_pointer_middle,34,135,2,107,23.62,52.4,0.03,0.82,100,4489,Incorrect
incongruent_pointer_middle,34,136,1,106,52.25,24.09,0.06,0.38,102,2422,Incorrect
incongruent_pointer_middle,34,137,1,102,42.04,71.74,0.05,1.13,106,2371,Incorrect
incongruent_pointer_middle,34,138,1,106,77.68,55.67,0.09,0.87,102,1757,Incorrect
incongruent_pointer_middle,34,139,1,102,57.93,78.36,0.06,1.23,106,2190,Incorrect
incongruent_pointer_middle,34,140,2,100,73.29,60.1,0.08,0.94,100,2006,Correct
incongruent_pointer_middle,34,141,2,107,46.04,74.48,0.05,1.17,100,1763,Incorrect
incongruent_pointer_middle,34,142,2,100,58.52,36.47,0.07,0.57,100,1186,Correct
incongruent_pointer_middle,34,143,2,100,56.21,32.72,0.06,0.51,100,1792,Correct
incongruent_pointer_middle,34,144,2,100,89.11,65.04,0.1,1.02,107,2458,Incorrect
incongruent_pointer_middle,34,145,2,100,65.5,38.95,0.07,0.61,100,750,Correct
incongruent_pointer_middle,34,146,1,106,47.4,33.3,0.05,0.52,102,1555,Incorrect
incongruent_pointer_middle,34,147,1,106,55.27,43.4,0.06,0.68,102,4084,Incorrect
incongruent_pointer_middle,34,148,1,106,55.02,45.47,0.06,0.71,106,544,Correct
incongruent_pointer_middle,34,149,1,102,50.81,58.16,0.06,0.91,106,1078,Incorrect
incongruent_pointer_middle,34,150,2,107,50.37,69.03,0.06,1.08,100,970,Incorrect
incongruent_pointer_middle,34,151,2,107,41.77,52.14,0.05,0.82,107,3470,Correct
incongruent_pointer_middle,34,152,2,100,55.55,33.19,0.06,0.52,100,2351,Correct
incongruent_pointer_middle,34,153,1,106,56.34,38.4,0.06,0.6,106,3009,Correct
incongruent_pointer_middle,34,154,1,102,44.84,68.65,0.05,1.08,102,981,Correct
incongruent_pointer_middle,34,155,1,102,52.16,70.98,0.06,1.11,102,2137,Correct
incongruent_pointer_middle,34,156,1,102,61.76,78.07,0.07,1.23,102,1872,Correct
incongruent_pointer_middle,34,157,1,102,34.85,56.46,0.04,0.89,102,2458,Correct
incongruent_pointer_middle,34,158,1,106,79.87,56.0,0.09,0.88,106,1444,Correct
incongruent_pointer_middle,34,159,1,106,84.08,59.78,0.09,0.94,106,899,Correct
incongruent_pointer_middle,34,160,1,102,41.21,51.9,0.05,0.82,102,1874,Correct
incongruent_pointer_middle,34,161,2,107,32.82,56.47,0.04,0.89,107,1871,Correct
incongruent_pointer_middle,34,162,1,106,48.81,20.74,0.05,0.33,102,2189,Incorrect
incongruent_pointer_middle,34,163,2,107,66.89,86.92,0.07,1.37,100,1743,Incorrect
incongruent_pointer_middle,34,164,1,102,51.15,74.51,0.06,1.17,102,2466,Correct
incongruent_pointer_middle,34,165,1,106,83.54,57.93,0.09,0.91,106,1307,Correct
incongruent_pointer_middle,34,166,2,100,31.4,12.8,0.04,0.2,107,1647,Incorrect
incongruent_pointer_middle,34,167,2,100,56.57,25.38,0.06,0.4,107,1605,Incorrect
incongruent_pointer_middle,34,168,2,100,43.25,17.0,0.05,0.27,100,2268,Correct
incongruent_pointer_middle,34,169,2,107,23.46,52.18,0.03,0.82,107,3462,Correct
incongruent_pointer_middle,34,170,1,106,81.52,62.42,0.09,0.98,106,1680,Correct
incongruent_pointer_middle,34,171,1,102,60.21,83.56,0.07,1.31,106,3320,Incorrect
incongruent_pointer_middle,34,172,2,107,18.21,34.25,0.02,0.54,100,2752,Incorrect
incongruent_pointer_middle,34,173,1,102,48.95,78.24,0.05,1.23,102,2954,Correct
incongruent_pointer_middle,34,174,2,100,41.37,27.55,0.05,0.43,107,1410,Incorrect
incongruent_pointer_middle,34,175,1,102,36.41,51.56,0.04,0.81,102,2812,Correct
incongruent_pointer_middle,34,176,1,102,30.7,42.63,0.03,0.67,102,1598,Correct
incongruent_pointer_middle,34,177,1,102,63.36,82.31,0.07,1.29,106,1701,Incorrect
incongruent_pointer_middle,34,178,1,106,65.59,48.82,0.07,0.77,102,1957,Incorrect
incongruent_pointer_middle,34,179,1,106,59.71,46.92,0.07,0.74,106,635,Correct
incongruent_pointer_middle,34,180,2,100,78.85,59.66,0.09,0.94,100,1922,Correct
incongruent_pointer_middle,34,181,2,100,37.18,16.75,0.04,0.26,107,1020,Incorrect
incongruent_pointer_middle,34,182,2,100,73.67,56.36,0.08,0.89,100,3096,Correct
incongruent_pointer_middle,34,183,2,107,36.97,61.07,0.04,0.96,107,1602,Correct
incongruent_pointer_middle,34,184,2,107,26.87,47.12,0.03,0.74,107,2115,Correct
incongruent_pointer_middle,34,185,1,106,48.91,22.05,0.05,0.35,106,3531,Correct
incongruent_pointer_middle,34,186,1,106,47.37,35.38,0.05,0.56,106,1346,Correct
incongruent_pointer_middle,34,187,1,106,61.91,40.9,0.07,0.64,106,811,Correct
incongruent_pointer_middle,34,188,1,106,56.59,38.31,0.06,0.6,106,711,Correct
incongruent_pointer_middle,34,189,2,107,26.07,42.23,0.03,0.66,100,857,Incorrect
incongruent_pointer_middle,34,190,1,106,47.44,39.94,0.05,0.63,102,1978,Incorrect
incongruent_pointer_middle,34,191,1,106,45.39,37.44,0.05,0.59,102,1181,Incorrect
incongruent_pointer_middle,34,192,1,106,51.15,39.28,0.06,0.62,106,1032,Correct
incongruent_pointer_middle,34,193,1,106,31.89,15.27,0.04,0.24,102,769,Incorrect
incongruent_pointer_middle,34,194,1,106,46.55,35.5,0.05,0.56,106,1459,Correct
incongruent_pointer_middle,34,195,1,106,40.95,32.92,0.05,0.52,106,1351,Correct
incongruent_pointer_middle,34,196,1,102,20.85,46.5,0.02,0.73,102,1462,Correct
incongruent_pointer_middle,34,197,1,102,39.22,60.32,0.04,0.95,102,2423,Correct
incongruent_pointer_middle,34,198,1,106,48.12,18.12,0.05,0.28,106,1131,Correct
incongruent_pointer_middle,34,199,1,102,12.42,34.54,0.01,0.54,106,1570,Incorrect
incongruent_pointer_middle,34,200,1,106,56.21,25.44,0.06,0.4,102,1795,Incorrect
incongruent_pointer_middle,34,201,1,102,41.56,60.97,0.05,0.96,102,1580,Correct
incongruent_pointer_middle,34,202,1,102,50.44,63.51,0.06,1.0,106,1277,Incorrect
incongruent_pointer_middle,34,203,2,100,36.43,22.3,0.04,0.35,100,1857,Correct
incongruent_pointer_middle,34,204,2,107,15.9,46.04,0.02,0.72,107,2431,Correct
incongruent_pointer_middle,34,205,1,106,61.25,43.46,0.07,0.68,106,1072,Correct
incongruent_pointer_middle,34,206,2,100,57.95,35.1,0.06,0.55,100,3965,Correct
incongruent_pointer_middle,34,207,2,107,32.27,43.93,0.04,0.69,107,4052,Correct
incongruent_pointer_middle,34,208,2,107,32.26,54.04,0.04,0.85,107,2259,Correct
incongruent_pointer_middle,34,209,2,100,37.65,24.34,0.04,0.38,100,4434,Correct
incongruent_pointer_middle,34,210,1,102,51.54,58.49,0.06,0.92,106,3155,Incorrect
incongruent_pointer_middle,34,211,1,106,79.44,48.72,0.09,0.77,106,880,Correct
incongruent_pointer_middle,34,212,2,100,62.56,34.09,0.07,0.54,100,2166,Correct
incongruent_pointer_middle,34,213,2,100,65.89,34.31,0.07,0.54,100,1298,Correct
incongruent_pointer_middle,34,214,2,100,73.54,57.64,0.08,0.91,100,591,Correct
incongruent_pointer_middle,34,215,1,102,52.72,82.57,0.06,1.3,102,3565,Correct
incongruent_pointer_middle,34,216,1,106,32.4,16.7,0.04,0.26,106,1063,Correct
incongruent_pointer_middle,34,217,2,107,31.59,46.99,0.04,0.74,100,4379,Incorrect
incongruent_pointer_middle,34,218,2,100,47.67,24.43,0.05,0.38,100,2015,Correct
incongruent_pointer_middle,34,219,2,100,78.43,65.88,0.09,1.03,107,1220,Incorrect
incongruent_pointer_middle,34,220,2,107,12.87,33.87,0.01,0.53,107,1596,Correct
incongruent_pointer_middle,34,221,2,107,42.14,51.66,0.05,0.81,100,1753,Incorrect
incongruent_pointer_middle,34,222,2,107,16.51,44.7,0.02,0.7,100,1003,Incorrect
incongruent_pointer_middle,34,223,2,100,57.26,48.33,0.06,0.76,100,685,Correct
incongruent_pointer_middle,34,224,2,100,33.68,17.01,0.04,0.27,100,1472,Correct
incongruent_pointer_middle,34,225,1,106,72.67,59.85,0.08,0.94,106,732,Correct
incongruent_pointer_middle,34,226,2,100,80.23,66.72,0.09,1.05,100,1290,Correct
incongruent_pointer_middle,34,227,2,100,75.63,54.07,0.08,0.85,100,734,Correct
incongruent_pointer_middle,34,228,1,102,27.74,38.58,0.03,0.61,102,1483,Correct
incongruent_pointer_middle,34,229,1,102,39.49,49.56,0.04,0.78,102,1425,Correct
incongruent_pointer_middle,34,230,1,106,65.82,34.77,0.07,0.55,106,1815,Correct
incongruent_pointer_middle,34,231,1,102,28.45,41.14,0.03,0.65,102,2515,Correct
incongruent_pointer_middle,34,232,1,106,37.58,21.03,0.04,0.33,102,1065,Incorrect
incongruent_pointer_middle,34,233,2,100,75.65,53.26,0.08,0.84,100,2199,Correct
incongruent_pointer_middle,34,234,1,102,40.17,54.07,0.04,0.85,102,2207,Correct
incongruent_pointer_middle,34,235,1,102,34.88,55.21,0.04,0.87,102,2834,Correct
incongruent_pointer_middle,34,236,2,107,68.66,88.4,0.08,1.39,100,1217,Incorrect
incongruent_pointer_middle,34,237,1,106,73.1,43.92,0.08,0.69,102,2114,Incorrect
incongruent_pointer_middle,34,238,2,100,31.81,12.0,0.04,0.19,107,3832,Incorrect
incongruent_pointer_middle,34,239,2,100,57.5,37.51,0.06,0.59,100,1268,Correct
incongruent_pointer_middle,34,240,1,106,78.84,56.19,0.09,0.88,106,3092,Correct
incongruent_pointer_middle,34,241,2,100,51.81,36.48,0.06,0.57,100,4035,Correct
incongruent_pointer_middle,34,242,1,102,55.61,69.07,0.06,1.08,106,3134,Incorrect
incongruent_pointer_middle,34,243,2,100,39.07,27.74,0.04,0.44,107,2366,Incorrect
incongruent_pointer_middle,34,244,2,100,40.86,25.96,0.05,0.41,100,1350,Correct
incongruent_pointer_middle,34,245,1,102,44.29,54.87,0.05,0.86,106,1243,Incorrect
incongruent_pointer_middle,34,246,2,100,82.01,68.04,0.09,1.07,100,1070,Correct
incongruent_pointer_middle,34,247,2,100,57.21,48.65,0.06,0.76,100,987,Correct
incongruent_pointer_middle,34,248,2,100,41.47,31.35,0.05,0.49,107,4838,Incorrect
incongruent_pointer_middle,34,249,1,106,78.53,56.58,0.09,0.89,106,3078,Correct
incongruent_pointer_middle,34,250,1,106,48.6,22.9,0.05,0.36,106,4811,Correct
incongruent_pointer_middle,34,251,1,102,21.79,43.92,0.02,0.69,102,1299,Correct
incongruent_pointer_middle,34,252,2,107,38.5,67.96,0.04,1.07,107,6097,Correct
incongruent_pointer_middle,34,253,1,102,54.01,74.47,0.06,1.17,102,2877,Correct
incongruent_pointer_middle,34,254,1,106,74.92,63.36,0.08,1.0,106,3188,Correct
incongruent_pointer_middle,34,255,1,102,35.25,60.57,0.04,0.95,102,3051,Correct
incongruent_pointer_middle,34,256,1,102,52.86,80.55,0.06,1.27,102,1720,Correct
incongruent_pointer_middle,34,257,1,106,67.37,54.11,0.08,0.85,106,1070,Correct
incongruent_pointer_middle,34,258,1,102,48.55,61.02,0.05,0.96,106,1861,Incorrect
incongruent_pointer_middle,34,259,2,100,70.82,52.98,0.08,0.83,100,1328,Correct
incongruent_pointer_middle,34,260,2,107,67.81,81.57,0.08,1.28,100,1037,Incorrect
incongruent_pointer_middle,34,261,1,106,47.28,31.02,0.05,0.49,102,2145,Incorrect
incongruent_pointer_middle,34,262,1,102,32.3,51.44,0.04,0.81,106,1167,Incorrect
incongruent_pointer_middle,34,263,1,106,62.04,35.34,0.07,0.56,102,872,Incorrect
incongruent_pointer_middle,34,264,2,107,43.3,52.53,0.05,0.83,100,1443,Incorrect
incongruent_pointer_middle,34,265,1,106,64.7,48.62,0.07,0.76,106,3160,Correct
incongruent_pointer_middle,34,266,2,107,60.56,86.16,0.07,1.35,107,1873,Correct
incongruent_pointer_middle,34,267,1,106,63.72,33.99,0.07,0.53,106,3163,Correct
incongruent_pointer_middle,34,268,1,106,78.71,63.97,0.09,1.0,102,1837,Incorrect
incongruent_pointer_middle,34,269,1,102,55.63,83.07,0.06,1.3,102,1124,Correct
incongruent_pointer_middle,34,270,1,102,66.09,86.56,0.07,1.36,102,2167,Correct
incongruent_pointer_middle,34,271,2,100,51.82,25.93,0.06,0.41,100,2523,Correct
incongruent_pointer_middle,34,272,2,107,52.53,62.83,0.06,0.99,107,1254,Correct
incongruent_pointer_middle,34,273,1,106,43.89,25.41,0.05,0.4,106,1738,Correct
incongruent_pointer_middle,34,274,2,107,17.31,46.36,0.02,0.73,107,2567,Correct
incongruent_pointer_middle,34,275,1,106,75.72,53.69,0.08,0.84,106,4387,Correct
incongruent_pointer_middle,34,276,2,100,86.5,61.33,0.1,0.96,100,3259,Correct
incongruent_pointer_middle,34,277,1,106,64.54,40.68,0.07,0.64,106,2831,Correct
incongruent_pointer_middle,34,278,1,106,57.51,36.91,0.06,0.58,106,1386,Correct
incongruent_pointer_middle,34,279,1,106,46.37,18.12,0.05,0.28,106,1338,Correct
incongruent_pointer_middle,34,280,2,100,71.75,51.96,0.08,0.82,100,2097,Correct
incongruent_pointer_middle,34,281,1,102,54.77,64.34,0.06,1.01,102,1225,Correct
incongruent_pointer_middle,34,282,2,100,47.67,23.23,0.05,0.36,100,1079,Correct
incongruent_pointer_middle,34,283,1,106,64.89,49.98,0.07,0.79,106,2335,Correct
incongruent_pointer_middle,34,284,2,100,74.35,53.61,0.08,0.84,100,1259,Correct
incongruent_pointer_middle,34,285,1,102,55.43,78.73,0.06,1.24,102,1951,Correct
incongruent_pointer_middle,34,286,2,107,40.49,55.31,0.05,0.87,107,2222,Correct
incongruent_pointer_middle,34,287,1,106,43.04,17.36,0.05,0.27,106,2336,Correct
incongruent_pointer_middle,34,288,1,102,33.16,48.67,0.04,0.76,102,4304,Correct
incongruent_pointer_middle,34,289,1,106,71.4,46.06,0.08,0.72,106,1412,Correct
incongruent_pointer_middle,34,290,1,102,39.74,67.37,0.04,1.06,102,1113,Correct
incongruent_pointer_middle,34,291,2,107,10.49,34.1,0.01,0.54,107,2586,Correct
incongruent_pointer_middle,34,292,2,107,41.48,68.57,0.05,1.08,107,1752,Correct
incongruent_pointer_middle,34,293,1,106,32.31,17.84,0.04,0.28,106,2957,Correct
incongruent_pointer_middle,34,294,2,100,42.98,25.31,0.05,0.4,100,2115,Correct
incongruent_pointer_middle,34,295,1,106,33.38,10.66,0.04,0.17,106,1801,Correct
incongruent_pointer_middle,34,296,1,106,49.65,32.74,0.06,0.51,106,1390,Correct
incongruent_pointer_middle,34,297,1,102,49.78,67.23,0.06,1.06,102,1098,Correct
incongruent_pointer_middle,34,298,1,106,80.8,57.44,0.09,0.9,102,3300,Incorrect
incongruent_pointer_middle,34,299,2,107,50.63,67.09,0.06,1.05,107,4894,Correct
incongruent_pointer_middle,34,300,2,107,43.92,51.79,0.05,0.81,107,3264,Correct
incongruent_pointer_middle,34,301,1,106,80.76,64.3,0.09,1.01,102,1526,Incorrect
incongruent_pointer_middle,34,302,1,102,19.47,36.54,0.02,0.57,102,1338,Correct
incongruent_pointer_middle,34,303,2,100,53.1,26.24,0.06,0.41,100,1364,Correct
incongruent_pointer_middle,34,304,2,107,38.99,48.07,0.04,0.76,107,1659,Correct
incongruent_pointer_middle,34,305,2,100,66.34,54.18,0.07,0.85,100,1914,Correct
incongruent_pointer_middle,34,306,1,102,14.38,39.02,0.02,0.61,102,1164,Correct
incongruent_pointer_middle,34,307,1,102,48.45,56.24,0.05,0.88,102,4604,Correct
incongruent_pointer_middle,34,308,2,107,40.5,59.64,0.05,0.94,107,4343,Correct
incongruent_pointer_middle,34,309,2,100,35.6,17.41,0.04,0.27,100,1359,Correct
incongruent_pointer_middle,34,310,1,102,34.49,62.47,0.04,0.98,102,1592,Correct
incongruent_pointer_middle,34,311,2,107,56.17,71.99,0.06,1.13,107,1553,Correct
incongruent_pointer_middle,34,312,2,100,47.96,17.9,0.05,0.28,100,3811,Correct
incongruent_pointer_middle,34,313,2,100,43.99,16.26,0.05,0.26,100,916,Correct
incongruent_pointer_middle,34,314,2,100,31.72,11.01,0.04,0.17,100,1019,Correct
incongruent_pointer_middle,34,315,1,102,67.17,83.97,0.08,1.32,102,1909,Correct
incongruent_pointer_middle,34,316,2,107,18.56,37.28,0.02,0.59,107,1298,Correct
incongruent_pointer_middle,34,317,2,100,62.85,48.27,0.07,0.76,100,2709,Correct
incongruent_pointer_middle,34,318,2,100,71.38,60.49,0.08,0.95,107,3449,Incorrect
incongruent_pointer_middle,34,319,1,106,70.7,48.53,0.08,0.76,106,1554,Correct
incongruent_pointer_middle,34,320,1,102,39.09,70.94,0.04,1.11,102,2508,Correct
incongruent_pointer_middle,34,321,1,102,52.97,63.32,0.06,0.99,102,4011,Correct
incongruent_pointer_middle,34,322,1,106,52.39,40.09,0.06,0.63,106,1279,Correct
incongruent_pointer_middle,34,323,1,106,63.49,53.23,0.07,0.84,106,921,Correct
incongruent_pointer_middle,34,324,1,102,50.15,69.33,0.06,1.09,102,2860,Correct
incongruent_pointer_middle,34,325,2,100,76.38,51.8,0.09,0.81,100,1792,Correct
incongruent_pointer_middle,34,326,1,102,34.59,43.93,0.04,0.69,102,1250,Correct
incongruent_pointer_middle,34,327,1,102,37.72,51.01,0.04,0.8,102,1331,Correct
incongruent_pointer_middle,34,328,1,102,45.81,67.8,0.05,1.06,102,1859,Correct
incongruent_pointer_middle,34,329,2,107,38.6,56.86,0.04,0.89,107,2415,Correct
incongruent_pointer_middle,34,330,2,100,52.52,44.57,0.06,0.7,100,2150,Correct
incongruent_pointer_middle,34,331,2,107,54.56,68.24,0.06,1.07,100,1102,Incorrect
incongruent_pointer_middle,34,332,1,106,71.43,55.9,0.08,0.88,106,1348,Correct
incongruent_pointer_middle,34,333,2,100,81.55,62.84,0.09,0.99,100,1704,Correct
incongruent_pointer_middle,34,334,2,100,61.5,42.6,0.07,0.67,100,1676,Correct
incongruent_pointer_middle,34,335,2,107,28.89,44.88,0.03,0.71,107,2744,Correct
incongruent_pointer_middle,34,336,1,106,65.38,43.92,0.07,0.69,106,1482,Correct
incongruent_pointer_middle,34,337,1,102,29.25,55.36,0.03,0.87,102,3361,Correct
incongruent_pointer_middle,34,338,1,106,40.03,21.96,0.04,0.35,106,2072,Correct
incongruent_pointer_middle,34,339,2,100,60.13,43.51,0.07,0.68,100,2797,Correct
incongruent_pointer_middle,34,340,2,100,83.93,55.99,0.09,0.88,100,1690,Correct
incongruent_pointer_middle,34,341,1,102,24.11,46.54,0.03,0.73,102,2961,Correct
incongruent_pointer_middle,34,342,1,102,18.79,37.8,0.02,0.59,102,1263,Correct
incongruent_pointer_middle,34,343,1,102,40.75,47.61,0.05,0.75,102,3325,Correct
incongruent_pointer_middle,34,344,1,102,29.24,61.82,0.03,0.97,102,1447,Correct
incongruent_pointer_middle,34,345,1,102,18.72,40.32,0.02,0.63,102,1435,Correct
incongruent_pointer_middle,34,346,2,100,54.62,39.62,0.06,0.62,100,1540,Correct
incongruent_pointer_middle,34,347,2,107,27.81,59.69,0.03,0.94,107,1519,Correct
incongruent_pointer_middle,34,348,1,102,16.15,38.5,0.02,0.6,102,2776,Correct
incongruent_pointer_middle,34,349,1,106,48.62,34.63,0.05,0.54,106,827,Correct
incongruent_pointer_middle,34,350,2,100,54.25,46.51,0.06,0.73,100,1270,Correct
incongruent_pointer_middle,34,351,2,100,40.33,26.65,0.05,0.42,100,748,Correct
incongruent_pointer_middle,34,352,1,102,39.96,70.68,0.04,1.11,102,2177,Correct
incongruent_pointer_middle,34,353,2,107,15.44,34.47,0.02,0.54,107,1217,Correct
incongruent_pointer_middle,34,354,2,107,20.12,43.96,0.02,0.69,107,2960,Correct
incongruent_pointer_middle,34,355,2,100,63.8,34.36,0.07,0.54,100,908,Correct
incongruent_pointer_middle,34,356,2,100,64.84,43.58,0.07,0.68,100,1166,Correct
incongruent_pointer_middle,34,357,1,102,33.91,46.94,0.04,0.74,102,3580,Correct
incongruent_pointer_middle,34,358,1,102,17.62,46.18,0.02,0.73,102,1061,Correct
incongruent_pointer_middle,34,359,2,100,58.67,36.63,0.07,0.58,100,2540,Correct
incongruent_pointer_middle,34,360,2,107,13.45,35.99,0.02,0.57,107,1310,Correct
incongruent_pointer_middle,34,361,1,102,54.09,62.21,0.06,0.98,102,3206,Correct
incongruent_pointer_middle,34,362,2,107,17.19,35.93,0.02,0.56,107,4333,Correct
incongruent_pointer_middle,34,363,2,107,50.75,80.32,0.06,1.26,107,2992,Correct
incongruent_pointer_middle,34,364,1,102,36.32,64.33,0.04,1.01,102,5225,Correct
incongruent_pointer_middle,34,365,2,100,48.18,40.85,0.05,0.64,100,3577,Correct
incongruent_pointer_middle,34,366,1,102,45.07,65.59,0.05,1.03,102,2595,Correct
incongruent_pointer_middle,34,367,2,100,41.55,28.66,0.05,0.45,100,1111,Correct
incongruent_pointer_middle,34,368,1,102,27.64,49.02,0.03,0.77,102,7252,Correct
incongruent_pointer_middle,34,369,2,107,61.89,78.74,0.07,1.24,100,2204,Incorrect
incongruent_pointer_middle,34,370,2,100,53.28,21.99,0.06,0.35,100,1049,Correct
incongruent_pointer_middle,34,371,1,102,41.16,61.5,0.05,0.97,102,4875,Correct
incongruent_pointer_middle,34,372,1,102,25.33,53.93,0.03,0.85,102,1125,Correct
incongruent_pointer_middle,34,373,1,102,59.91,77.8,0.07,1.22,102,794,Correct
incongruent_pointer_middle,34,374,2,100,82.21,54.66,0.09,0.86,100,1297,Correct
incongruent_pointer_middle,34,375,2,100,89.18,64.45,0.1,1.01,107,1196,Incorrect
incongruent_pointer_middle,34,376,2,100,68.8,41.14,0.08,0.65,100,835,Correct
incongruent_pointer_middle,34,377,1,102,23.46,35.88,0.03,0.56,102,597,Correct
incongruent_pointer_middle,34,378,1,106,67.09,57.03,0.08,0.9,106,2577,Correct
incongruent_pointer_middle,34,379,1,106,48.41,28.13,0.05,0.44,106,1423,Correct
incongruent_pointer_middle,34,380,1,106,62.76,48.39,0.07,0.76,106,2136,Correct
incongruent_pointer_middle,34,381,2,100,68.38,59.69,0.08,0.94,100,1713,Correct
incongruent_pointer_middle,34,382,2,107,38.46,52.43,0.04,0.82,107,3247,Correct
incongruent_pointer_middle,34,383,2,107,64.95,78.34,0.07,1.23,107,1109,Correct
incongruent_pointer_middle,34,384,2,100,46.97,27.36,0.05,0.43,100,1094,Correct
incongruent_pointer_middle,34,385,2,100,64.59,51.93,0.07,0.82,107,5277,Incorrect
incongruent_pointer_middle,34,386,2,107,34.29,45.53,0.04,0.72,100,3236,Incorrect
incongruent_pointer_middle,34,387,1,106,72.93,59.97,0.08,0.94,106,2230,Correct
incongruent_pointer_middle,34,388,2,107,51.59,77.99,0.06,1.23,107,1951,Correct
incongruent_pointer_middle,34,389,1,102,32.91,43.44,0.04,0.68,106,5360,Incorrect
incongruent_pointer_middle,34,390,1,106,53.37,23.92,0.06,0.38,106,1034,Correct
incongruent_pointer_middle,34,391,1,106,88.1,63.11,0.1,0.99,106,2755,Correct
incongruent_pointer_middle,34,392,1,106,35.01,12.21,0.04,0.19,106,1595,Correct
incongruent_pointer_middle,34,393,2,107,51.64,67.41,0.06,1.06,107,1575,Correct
incongruent_pointer_middle,34,394,1,102,34.46,62.49,0.04,0.98,102,1238,Correct
incongruent_pointer_middle,34,395,2,107,53.02,71.98,0.06,1.13,107,1208,Correct
incongruent_pointer_middle,34,396,1,102,54.74,65.12,0.06,1.02,102,1399,Correct
incongruent_pointer_middle,34,397,2,107,64.55,85.66,0.07,1.35,107,1678,Correct
incongruent_pointer_middle,34,398,1,102,68.3,82.88,0.08,1.3,102,1775,Correct
