condition,subject,trial,sub_task,cat,x,y,xt,yt,resp,rt,fb
congruent_pinky_thumb,35,0,2,112,49.32,27.26,0.06,0.43,112,6636,Correct
congruent_pinky_thumb,35,1,1,109,55.92,40.55,0.06,0.64,109,2720,Correct
congruent_pinky_thumb,35,2,2,113,15.67,32.76,0.02,0.51,113,3076,Correct
congruent_pinky_thumb,35,3,2,113,28.67,60.35,0.03,0.95,112,3242,Incorrect
congruent_pinky_thumb,35,4,2,112,32.63,13.2,0.04,0.21,113,6432,Incorrect
congruent_pinky_thumb,35,5,2,113,30.8,51.21,0.03,0.8,112,6219,Incorrect
congruent_pinky_thumb,35,6,1,99,29.22,45.14,0.03,0.71,99,2587,Correct
congruent_pinky_thumb,35,7,2,112,31.63,14.91,0.04,0.23,113,4959,Incorrect
congruent_pinky_thumb,35,8,1,99,25.53,46.65,0.03,0.73,109,2382,Incorrect
congruent_pinky_thumb,35,9,2,112,70.05,38.52,0.08,0.61,112,3046,Correct
congruent_pinky_thumb,35,10,2,112,38.57,18.55,0.04,0.29,113,5505,Incorrect
congruent_pinky_thumb,35,11,1,109,69.19,38.77,0.08,0.61,109,2379,Correct
congruent_pinky_thumb,35,12,2,112,50.09,41.44,0.06,0.65,112,3767,Correct
congruent_pinky_thumb,35,13,1,99,15.5,40.32,0.02,0.63,99,2854,Correct
congruent_pinky_thumb,35,14,2,113,38.38,66.56,0.04,1.05,113,4428,Correct
congruent_pinky_thumb,35,15,1,109,64.13,46.14,0.07,0.72,109,2613,Correct
congruent_pinky_thumb,35,16,2,112,46.78,36.32,0.05,0.57,112,2038,Correct
congruent_pinky_thumb,35,17,2,112,80.43,60.14,0.09,0.94,112,2612,Correct
congruent_pinky_thumb,35,18,1,109,62.79,43.78,0.07,0.69,109,1172,Correct
congruent_pinky_thumb,35,19,2,113,45.54,59.44,0.05,0.93,113,1295,Correct
congruent_pinky_thumb,35,20,1,99,34.72,65.13,0.04,1.02,99,1807,Correct
congruent_pinky_thumb,35,21,1,99,53.52,79.07,0.06,1.24,109,1818,Incorrect
congruent_pinky_thumb,35,22,2,113,32.47,63.61,0.04,1.0,113,979,Correct
congruent_pinky_thumb,35,23,2,112,81.0,53.85,0.09,0.85,112,943,Correct
congruent_pinky_thumb,35,24,1,109,56.35,27.58,0.06,0.43,99,3349,Incorrect
congruent_pinky_thumb,35,25,2,112,59.12,26.79,0.07,0.42,112,2932,Correct
congruent_pinky_thumb,35,26,2,113,51.97,76.86,0.06,1.21,113,1615,Correct
congruent_pinky_thumb,35,27,1,99,59.37,83.5,0.07,1.31,109,1806,Incorrect
congruent_pinky_thumb,35,28,1,109,77.82,62.92,0.09,0.99,109,1485,Correct
congruent_pinky_thumb,35,29,2,112,84.29,62.09,0.09,0.98,112,1426,Correct
congruent_pinky_thumb,35,30,1,99,44.4,62.87,0.05,0.99,99,1260,Correct
congruent_pinky_thumb,35,31,2,112,39.98,25.57,0.04,0.4,113,1371,Incorrect
congruent_pinky_thumb,35,32,1,109,82.49,60.11,0.09,0.94,109,2150,Correct
congruent_pinky_thumb,35,33,2,112,36.9,21.34,0.04,0.34,113,2531,Incorrect
congruent_pinky_thumb,35,34,2,113,52.63,65.67,0.06,1.03,113,4245,Correct
congruent_pinky_thumb,35,35,1,109,62.76,45.78,0.07,0.72,109,1659,Correct
congruent_pinky_thumb,35,36,2,112,49.86,27.12,0.06,0.43,113,2861,Incorrect
congruent_pinky_thumb,35,37,1,99,40.28,60.45,0.05,0.95,99,1082,Correct
congruent_pinky_thumb,35,38,2,113,20.12,48.63,0.02,0.76,113,1708,Correct
congruent_pinky_thumb,35,39,1,109,70.78,41.16,0.08,0.65,109,1757,Correct
congruent_pinky_thumb,35,40,2,113,46.32,60.72,0.05,0.95,113,2209,Correct
congruent_pinky_thumb,35,41,2,112,67.82,51.63,0.08,0.81,112,1094,Correct
congruent_pinky_thumb,35,42,2,113,19.04,49.27,0.02,0.77,112,1673,Incorrect
congruent_pinky_thumb,35,43,2,112,38.56,27.26,0.04,0.43,113,1279,Incorrect
congruent_pinky_thumb,35,44,1,99,17.91,32.23,0.02,0.51,99,1044,Correct
congruent_pinky_thumb,35,45,1,109,35.95,14.4,0.04,0.23,99,1600,Incorrect
congruent_pinky_thumb,35,46,2,112,49.33,24.96,0.06,0.39,113,2049,Incorrect
congruent_pinky_thumb,35,47,1,109,72.79,44.93,0.08,0.71,109,762,Correct
congruent_pinky_thumb,35,48,2,112,57.68,50.56,0.06,0.79,112,3968,Correct
congruent_pinky_thumb,35,49,2,112,56.59,28.53,0.06,0.45,112,755,Correct
congruent_pinky_thumb,35,50,1,109,35.41,24.77,0.04,0.39,99,875,Incorrect
congruent_pinky_thumb,35,51,2,113,37.19,66.23,0.04,1.04,113,1069,Correct
congruent_pinky_thumb,35,52,1,99,32.2,41.96,0.04,0.66,109,3156,Incorrect
congruent_pinky_thumb,35,53,1,109,54.54,43.42,0.06,0.68,109,5431,Correct
congruent_pinky_thumb,35,54,2,113,20.94,48.89,0.02,0.77,113,845,Correct
congruent_pinky_thumb,35,55,1,109,44.13,23.91,0.05,0.38,109,1772,Correct
congruent_pinky_thumb,35,56,2,112,81.44,51.21,0.09,0.8,112,1000,Correct
congruent_pinky_thumb,35,57,2,112,72.82,48.66,0.08,0.76,112,1146,Correct
congruent_pinky_thumb,35,58,1,99,56.36,80.93,0.06,1.27,109,1480,Incorrect
congruent_pinky_thumb,35,59,2,113,59.08,68.39,0.07,1.07,112,2288,Incorrect
congruent_pinky_thumb,35,60,2,113,11.19,35.66,0.01,0.56,113,1095,Correct
congruent_pinky_thumb,35,61,1,99,62.82,83.49,0.07,1.31,109,6519,Incorrect
congruent_pinky_thumb,35,62,2,112,39.62,26.11,0.04,0.41,113,1942,Incorrect
congruent_pinky_thumb,35,63,2,112,42.07,20.12,0.05,0.32,113,1453,Incorrect
congruent_pinky_thumb,35,64,2,113,33.6,57.19,0.04,0.9,113,1144,Correct
congruent_pinky_thumb,35,65,2,113,46.27,70.48,0.05,1.11,113,2341,Correct
congruent_pinky_thumb,35,66,1,99,45.77,66.07,0.05,1.04,99,1562,Correct
congruent_pinky_thumb,35,67,2,112,55.33,35.75,0.06,0.56,112,3511,Correct
congruent_pinky_thumb,35,68,2,113,34.28,54.2,0.04,0.85,113,2263,Correct
congruent_pinky_thumb,35,69,1,109,82.5,65.33,0.09,1.03,109,1917,Correct
congruent_pinky_thumb,35,70,2,113,61.17,87.04,0.07,1.37,113,3107,Correct
congruent_pinky_thumb,35,71,2,113,20.18,51.72,0.02,0.81,113,941,Correct
congruent_pinky_thumb,35,72,1,99,51.64,60.03,0.06,0.94,99,2011,Correct
congruent_pinky_thumb,35,73,2,113,44.63,74.59,0.05,1.17,113,1115,Correct
congruent_pinky_thumb,35,74,1,109,41.07,22.04,0.05,0.35,99,1062,Incorrect
congruent_pinky_thumb,35,75,2,112,50.44,27.46,0.06,0.43,113,1489,Incorrect
congruent_pinky_thumb,35,76,1,109,86.43,62.82,0.1,0.99,109,1615,Correct
congruent_pinky_thumb,35,77,2,112,68.34,43.98,0.08,0.69,112,1900,Correct
congruent_pinky_thumb,35,78,1,109,45.18,28.31,0.05,0.44,99,1307,Incorrect
congruent_pinky_thumb,35,79,1,109,42.67,24.05,0.05,0.38,109,3301,Correct
congruent_pinky_thumb,35,80,2,112,35.55,17.86,0.04,0.28,113,2317,Incorrect
congruent_pinky_thumb,35,81,2,113,34.9,59.51,0.04,0.93,113,8272,Correct
congruent_pinky_thumb,35,82,1,99,68.79,83.03,0.08,1.3,109,1244,Incorrect
congruent_pinky_thumb,35,83,2,113,17.02,41.32,0.02,0.65,113,999,Correct
congruent_pinky_thumb,35,84,2,112,76.79,64.34,0.09,1.01,112,929,Correct
congruent_pinky_thumb,35,85,2,112,51.52,34.73,0.06,0.55,112,1429,Correct
congruent_pinky_thumb,35,86,1,109,63.43,38.24,0.07,0.6,109,1152,Correct
congruent_pinky_thumb,35,87,1,109,51.62,36.64,0.06,0.58,109,5016,Correct
congruent_pinky_thumb,35,88,1,109,43.68,31.49,0.05,0.49,99,2336,Incorrect
congruent_pinky_thumb,35,89,2,112,70.95,45.44,0.08,0.71,112,983,Correct
congruent_pinky_thumb,35,90,2,112,36.25,22.47,0.04,0.35,113,1731,Incorrect
congruent_pinky_thumb,35,91,2,113,12.49,40.23,0.01,0.63,113,986,Correct
congruent_pinky_thumb,35,92,1,109,31.75,15.2,0.04,0.24,99,3238,Incorrect
congruent_pinky_thumb,35,93,2,113,60.81,80.07,0.07,1.26,112,1713,Incorrect
congruent_pinky_thumb,35,94,2,112,62.06,39.45,0.07,0.62,112,3182,Correct
congruent_pinky_thumb,35,95,2,112,64.16,32.47,0.07,0.51,112,1397,Correct
congruent_pinky_thumb,35,96,1,99,29.92,62.75,0.03,0.99,109,3941,Incorrect
congruent_pinky_thumb,35,97,2,112,69.7,48.54,0.08,0.76,112,4075,Correct
congruent_pinky_thumb,35,98,1,109,74.68,51.78,0.08,0.81,109,2812,Correct
congruent_pinky_thumb,35,99,1,109,53.25,30.33,0.06,0.48,99,3965,Incorrect
congruent_pinky_thumb,35,100,1,99,52.38,66.93,0.06,1.05,109,4674,Incorrect
congruent_pinky_thumb,35,101,1,99,61.46,82.19,0.07,1.29,109,5769,Incorrect
congruent_pinky_thumb,35,102,1,109,41.72,21.45,0.05,0.34,99,3457,Incorrect
congruent_pinky_thumb,35,103,1,99,26.27,45.99,0.03,0.72,99,1871,Correct
congruent_pinky_thumb,35,104,2,112,42.51,24.37,0.05,0.38,113,13323,Incorrect
congruent_pinky_thumb,35,105,2,113,33.94,47.02,0.04,0.74,112,15018,Incorrect
congruent_pinky_thumb,35,106,2,113,46.18,74.93,0.05,1.18,113,5880,Correct
congruent_pinky_thumb,35,107,1,99,39.4,50.51,0.04,0.79,109,6038,Incorrect
congruent_pinky_thumb,35,108,2,112,38.45,13.49,0.04,0.21,112,2183,Correct
congruent_pinky_thumb,35,109,2,113,41.84,67.99,0.05,1.07,113,3145,Correct
congruent_pinky_thumb,35,110,2,113,21.56,48.26,0.02,0.76,112,4905,Incorrect
congruent_pinky_thumb,35,111,2,112,63.73,52.08,0.07,0.82,113,5597,Incorrect
congruent_pinky_thumb,35,112,1,109,75.3,58.94,0.08,0.93,109,6232,Correct
congruent_pinky_thumb,35,113,1,99,31.89,61.35,0.04,0.96,99,7222,Correct
congruent_pinky_thumb,35,114,1,109,84.45,65.38,0.09,1.03,109,6452,Correct
congruent_pinky_thumb,35,115,1,109,60.09,43.24,0.07,0.68,99,3179,Incorrect
congruent_pinky_thumb,35,116,1,109,55.86,43.57,0.06,0.68,109,6159,Correct
congruent_pinky_thumb,35,117,1,99,52.89,69.75,0.06,1.1,109,3031,Incorrect
congruent_pinky_thumb,35,118,1,99,51.48,66.57,0.06,1.05,109,8153,Incorrect
congruent_pinky_thumb,35,119,2,113,40.52,60.66,0.05,0.95,113,4160,Correct
congruent_pinky_thumb,35,120,2,113,31.2,51.08,0.03,0.8,113,2753,Correct
congruent_pinky_thumb,35,121,2,112,44.64,30.97,0.05,0.49,113,12869,Incorrect
congruent_pinky_thumb,35,122,2,112,55.54,35.13,0.06,0.55,112,3591,Correct
congruent_pinky_thumb,35,123,1,99,24.76,55.37,0.03,0.87,99,2467,Correct
congruent_pinky_thumb,35,124,1,109,63.07,52.53,0.07,0.83,99,1551,Incorrect
congruent_pinky_thumb,35,125,1,99,39.8,48.68,0.04,0.76,99,4387,Correct
congruent_pinky_thumb,35,126,2,113,45.13,67.46,0.05,1.06,112,7513,Incorrect
congruent_pinky_thumb,35,127,2,112,65.68,40.72,0.07,0.64,112,8895,Correct
congruent_pinky_thumb,35,128,2,113,44.06,70.67,0.05,1.11,112,6593,Incorrect
congruent_pinky_thumb,35,129,2,113,26.59,44.54,0.03,0.7,112,8142,Incorrect
congruent_pinky_thumb,35,130,2,113,51.23,60.9,0.06,0.96,112,3440,Incorrect
congruent_pinky_thumb,35,131,2,112,74.34,59.73,0.08,0.94,112,22156,Correct
congruent_pinky_thumb,35,132,2,112,42.59,16.74,0.05,0.26,113,8906,Incorrect
congruent_pinky_thumb,35,133,2,113,63.58,74.13,0.07,1.16,112,2172,Incorrect
congruent_pinky_thumb,35,134,2,113,40.58,52.45,0.05,0.82,113,4651,Correct
congruent_pinky_thumb,35,135,2,113,46.21,60.48,0.05,0.95,112,12881,Incorrect
congruent_pinky_thumb,35,136,1,109,58.88,38.05,0.07,0.6,109,2976,Correct
congruent_pinky_thumb,35,137,1,99,46.67,53.51,0.05,0.84,109,14938,Incorrect
congruent_pinky_thumb,35,138,1,99,52.16,80.62,0.06,1.27,99,2153,Correct
congruent_pinky_thumb,35,139,1,109,50.66,23.81,0.06,0.37,109,3347,Correct
congruent_pinky_thumb,35,140,1,99,28.84,43.79,0.03,0.69,99,2617,Correct
congruent_pinky_thumb,35,141,1,109,59.87,27.11,0.07,0.43,99,2225,Incorrect
congruent_pinky_thumb,35,142,2,113,53.92,75.75,0.06,1.19,112,16684,Incorrect
congruent_pinky_thumb,35,143,1,99,64.23,82.99,0.07,1.3,109,12819,Incorrect
congruent_pinky_thumb,35,144,1,109,49.91,33.49,0.06,0.53,99,30289,Incorrect
congruent_pinky_thumb,35,145,2,112,48.55,31.2,0.05,0.49,112,5818,Correct
congruent_pinky_thumb,35,146,2,112,56.02,28.89,0.06,0.45,112,3407,Correct
congruent_pinky_thumb,35,147,1,99,59.93,69.89,0.07,1.1,99,4353,Correct
congruent_pinky_thumb,35,148,2,113,53.54,67.3,0.06,1.06,113,3843,Correct
congruent_pinky_thumb,35,149,2,113,41.56,52.09,0.05,0.82,113,1829,Correct
congruent_pinky_thumb,35,150,1,109,71.81,42.59,0.08,0.67,109,1989,Correct
congruent_pinky_thumb,35,151,2,113,20.7,37.82,0.02,0.59,113,1696,Correct
congruent_pinky_thumb,35,152,2,112,70.33,55.63,0.08,0.87,112,1338,Correct
congruent_pinky_thumb,35,153,1,109,59.93,29.2,0.07,0.46,99,1037,Incorrect
congruent_pinky_thumb,35,154,1,109,51.54,34.07,0.06,0.54,99,1707,Incorrect
congruent_pinky_thumb,35,155,1,109,53.64,35.71,0.06,0.56,109,4164,Correct
congruent_pinky_thumb,35,156,2,112,61.61,32.5,0.07,0.51,112,2911,Correct
congruent_pinky_thumb,35,157,1,109,44.8,18.11,0.05,0.28,99,3177,Incorrect
congruent_pinky_thumb,35,158,2,112,50.55,27.68,0.06,0.43,112,5947,Correct
congruent_pinky_thumb,35,159,2,112,68.15,45.42,0.08,0.71,113,5265,Incorrect
congruent_pinky_thumb,35,160,1,109,80.96,63.34,0.09,0.99,109,4911,Correct
congruent_pinky_thumb,35,161,1,99,53.8,64.73,0.06,1.02,99,2721,Correct
congruent_pinky_thumb,35,162,2,113,51.96,59.43,0.06,0.93,113,4966,Correct
congruent_pinky_thumb,35,163,1,99,57.39,71.33,0.06,1.12,99,2923,Correct
congruent_pinky_thumb,35,164,2,113,51.96,72.58,0.06,1.14,113,5602,Correct
congruent_pinky_thumb,35,165,1,109,38.28,25.43,0.04,0.4,99,2083,Incorrect
congruent_pinky_thumb,35,166,1,99,55.07,79.36,0.06,1.25,99,3573,Correct
congruent_pinky_thumb,35,167,2,113,45.44,67.18,0.05,1.06,113,4781,Correct
congruent_pinky_thumb,35,168,1,109,54.71,27.91,0.06,0.44,109,6463,Correct
congruent_pinky_thumb,35,169,1,99,55.81,83.03,0.06,1.3,99,4788,Correct
congruent_pinky_thumb,35,170,1,99,39.77,59.54,0.04,0.94,99,4644,Correct
congruent_pinky_thumb,35,171,2,113,40.62,58.2,0.05,0.91,113,3485,Correct
congruent_pinky_thumb,35,172,1,99,56.8,72.95,0.06,1.15,109,2660,Incorrect
congruent_pinky_thumb,35,173,1,99,58.13,84.36,0.07,1.33,99,2118,Correct
congruent_pinky_thumb,35,174,1,99,35.34,56.47,0.04,0.89,109,2123,Incorrect
congruent_pinky_thumb,35,175,1,99,13.11,33.26,0.01,0.52,99,2904,Correct
congruent_pinky_thumb,35,176,1,109,53.25,29.85,0.06,0.47,109,3755,Correct
congruent_pinky_thumb,35,177,1,109,38.05,26.91,0.04,0.42,109,2583,Correct
congruent_pinky_thumb,35,178,2,113,44.7,59.66,0.05,0.94,113,2235,Correct
congruent_pinky_thumb,35,179,2,112,58.2,50.62,0.07,0.8,112,1327,Correct
congruent_pinky_thumb,35,180,2,113,32.36,59.78,0.04,0.94,113,1003,Correct
congruent_pinky_thumb,35,181,1,109,35.97,17.53,0.04,0.28,109,3883,Correct
congruent_pinky_thumb,35,182,2,113,38.43,47.75,0.04,0.75,113,4701,Correct
congruent_pinky_thumb,35,183,1,99,34.59,56.36,0.04,0.89,99,1866,Correct
congruent_pinky_thumb,35,184,1,99,32.59,64.75,0.04,1.02,99,1879,Correct
congruent_pinky_thumb,35,185,1,99,24.13,35.73,0.03,0.56,99,1924,Correct
congruent_pinky_thumb,35,186,1,99,42.56,58.86,0.05,0.92,109,936,Incorrect
congruent_pinky_thumb,35,187,2,113,17.98,34.77,0.02,0.55,113,1171,Correct
congruent_pinky_thumb,35,188,1,99,34.01,63.0,0.04,0.99,99,5696,Correct
congruent_pinky_thumb,35,189,2,113,46.34,74.73,0.05,1.17,113,5394,Correct
congruent_pinky_thumb,35,190,2,112,53.72,31.33,0.06,0.49,112,1243,Correct
congruent_pinky_thumb,35,191,1,99,54.28,61.89,0.06,0.97,99,2851,Correct
congruent_pinky_thumb,35,192,1,109,74.22,59.21,0.08,0.93,99,1418,Incorrect
congruent_pinky_thumb,35,193,1,99,17.37,41.16,0.02,0.65,109,2100,Incorrect
congruent_pinky_thumb,35,194,1,99,41.91,70.71,0.05,1.11,99,2566,Correct
congruent_pinky_thumb,35,195,2,112,84.39,63.78,0.09,1.0,112,1736,Correct
congruent_pinky_thumb,35,196,1,99,32.38,63.32,0.04,0.99,99,1643,Correct
congruent_pinky_thumb,35,197,1,99,40.16,53.46,0.04,0.84,99,2143,Correct
congruent_pinky_thumb,35,198,1,99,56.3,77.0,0.06,1.21,109,1580,Incorrect
congruent_pinky_thumb,35,199,1,99,23.27,43.49,0.03,0.68,109,3110,Incorrect
congruent_pinky_thumb,35,200,1,99,52.96,81.91,0.06,1.29,109,2091,Incorrect
congruent_pinky_thumb,35,201,1,109,84.81,67.0,0.09,1.05,99,1707,Incorrect
congruent_pinky_thumb,35,202,2,112,59.12,44.83,0.07,0.7,112,1424,Correct
congruent_pinky_thumb,35,203,2,112,76.96,60.5,0.09,0.95,112,1367,Correct
congruent_pinky_thumb,35,204,1,109,76.77,63.95,0.09,1.0,99,3223,Incorrect
congruent_pinky_thumb,35,205,1,99,43.49,68.13,0.05,1.07,109,4156,Incorrect
congruent_pinky_thumb,35,206,2,113,46.71,72.69,0.05,1.14,113,1324,Correct
congruent_pinky_thumb,35,207,2,113,39.82,58.36,0.04,0.92,113,1441,Correct
congruent_pinky_thumb,35,208,2,112,50.95,36.02,0.06,0.57,113,1550,Incorrect
congruent_pinky_thumb,35,209,1,109,74.03,42.92,0.08,0.67,109,5008,Correct
congruent_pinky_thumb,35,210,2,112,34.24,13.42,0.04,0.21,113,2006,Incorrect
congruent_pinky_thumb,35,211,2,113,53.78,62.55,0.06,0.98,112,3234,Incorrect
congruent_pinky_thumb,35,212,2,112,83.05,68.25,0.09,1.07,112,1237,Correct
congruent_pinky_thumb,35,213,2,112,55.21,38.96,0.06,0.61,112,4712,Correct
congruent_pinky_thumb,35,214,2,112,55.98,48.69,0.06,0.76,112,1731,Correct
congruent_pinky_thumb,35,215,2,113,29.15,53.93,0.03,0.85,113,1134,Correct
congruent_pinky_thumb,35,216,1,109,49.08,29.87,0.05,0.47,99,1446,Incorrect
congruent_pinky_thumb,35,217,1,109,37.43,14.26,0.04,0.22,109,2771,Correct
congruent_pinky_thumb,35,218,2,113,32.1,47.35,0.04,0.74,113,1138,Correct
congruent_pinky_thumb,35,219,1,109,63.29,42.39,0.07,0.67,109,1423,Correct
congruent_pinky_thumb,35,220,2,113,21.21,45.62,0.02,0.72,113,880,Correct
congruent_pinky_thumb,35,221,2,112,73.23,44.25,0.08,0.7,112,1447,Correct
congruent_pinky_thumb,35,222,2,112,58.58,49.94,0.07,0.78,112,1011,Correct
congruent_pinky_thumb,35,223,2,113,41.6,70.48,0.05,1.11,113,1348,Correct
congruent_pinky_thumb,35,224,1,99,26.49,40.19,0.03,0.63,99,915,Correct
congruent_pinky_thumb,35,225,1,109,51.51,24.63,0.06,0.39,99,2879,Incorrect
congruent_pinky_thumb,35,226,1,109,59.13,35.91,0.07,0.56,109,2131,Correct
congruent_pinky_thumb,35,227,1,109,54.93,33.32,0.06,0.52,109,3945,Correct
congruent_pinky_thumb,35,228,1,99,30.76,60.32,0.03,0.95,99,1110,Correct
congruent_pinky_thumb,35,229,1,99,35.95,51.8,0.04,0.81,99,1209,Correct
congruent_pinky_thumb,35,230,1,99,37.22,54.21,0.04,0.85,99,1738,Correct
congruent_pinky_thumb,35,231,2,113,54.82,64.27,0.06,1.01,113,2453,Correct
congruent_pinky_thumb,35,232,1,99,60.78,70.19,0.07,1.1,109,2828,Incorrect
congruent_pinky_thumb,35,233,1,109,45.16,35.8,0.05,0.56,99,2044,Incorrect
congruent_pinky_thumb,35,234,1,99,54.92,66.15,0.06,1.04,99,1021,Correct
congruent_pinky_thumb,35,235,1,99,11.26,34.07,0.01,0.54,99,2653,Correct
congruent_pinky_thumb,35,236,1,109,32.12,10.4,0.04,0.16,109,2609,Correct
congruent_pinky_thumb,35,237,2,112,46.27,25.05,0.05,0.39,112,2241,Correct
congruent_pinky_thumb,35,238,1,99,60.7,76.06,0.07,1.19,109,2410,Incorrect
congruent_pinky_thumb,35,239,1,109,55.58,48.88,0.06,0.77,109,2879,Correct
congruent_pinky_thumb,35,240,2,112,49.7,26.14,0.06,0.41,112,3438,Correct
congruent_pinky_thumb,35,241,1,109,50.78,24.36,0.06,0.38,109,3198,Correct
congruent_pinky_thumb,35,242,2,112,73.07,58.17,0.08,0.91,112,1351,Correct
congruent_pinky_thumb,35,243,1,109,81.3,56.18,0.09,0.88,109,4059,Correct
congruent_pinky_thumb,35,244,2,113,57.97,78.74,0.06,1.24,112,1030,Incorrect
congruent_pinky_thumb,35,245,1,99,61.62,86.71,0.07,1.36,99,2238,Correct
congruent_pinky_thumb,35,246,1,109,36.92,16.32,0.04,0.26,109,3693,Correct
congruent_pinky_thumb,35,247,1,109,79.49,64.11,0.09,1.01,109,1809,Correct
congruent_pinky_thumb,35,248,2,113,60.45,72.41,0.07,1.14,112,1833,Incorrect
congruent_pinky_thumb,35,249,1,99,53.76,65.31,0.06,1.03,109,4445,Incorrect
congruent_pinky_thumb,35,250,1,99,47.77,79.18,0.05,1.24,99,5036,Correct
congruent_pinky_thumb,35,251,2,112,66.64,47.2,0.07,0.74,112,1125,Correct
congruent_pinky_thumb,35,252,1,109,47.62,29.64,0.05,0.47,99,2577,Incorrect
congruent_pinky_thumb,35,253,1,109,40.01,22.23,0.04,0.35,109,4483,Correct
congruent_pinky_thumb,35,254,1,109,44.07,33.48,0.05,0.53,99,5905,Incorrect
congruent_pinky_thumb,35,255,1,99,29.51,44.52,0.03,0.7,109,2455,Incorrect
congruent_pinky_thumb,35,256,1,99,14.84,42.14,0.02,0.66,99,7357,Correct
congruent_pinky_thumb,35,257,1,109,78.66,60.44,0.09,0.95,99,4357,Incorrect
congruent_pinky_thumb,35,258,2,112,75.0,51.04,0.08,0.8,112,2122,Correct
congruent_pinky_thumb,35,259,2,112,48.52,29.09,0.05,0.46,113,1738,Incorrect
congruent_pinky_thumb,35,260,1,109,78.57,52.21,0.09,0.82,109,3751,Correct
congruent_pinky_thumb,35,261,2,113,61.31,74.75,0.07,1.17,112,2279,Incorrect
congruent_pinky_thumb,35,262,2,112,63.58,51.98,0.07,0.82,113,4685,Incorrect
congruent_pinky_thumb,35,263,1,109,88.15,61.75,0.1,0.97,99,9067,Incorrect
congruent_pinky_thumb,35,264,1,109,73.09,58.91,0.08,0.93,109,7112,Correct
congruent_pinky_thumb,35,265,1,99,25.83,51.35,0.03,0.81,99,3002,Correct
congruent_pinky_thumb,35,266,1,99,62.65,82.58,0.07,1.3,109,2715,Incorrect
congruent_pinky_thumb,35,267,2,113,24.46,41.38,0.03,0.65,113,3508,Correct
congruent_pinky_thumb,35,268,1,99,27.2,46.96,0.03,0.74,109,2849,Incorrect
congruent_pinky_thumb,35,269,1,109,81.55,56.07,0.09,0.88,99,1691,Incorrect
congruent_pinky_thumb,35,270,2,112,48.95,41.89,0.05,0.66,113,1822,Incorrect
congruent_pinky_thumb,35,271,2,112,60.62,27.93,0.07,0.44,112,1988,Correct
congruent_pinky_thumb,35,272,2,112,51.04,25.82,0.06,0.41,113,4204,Incorrect
congruent_pinky_thumb,35,273,1,109,52.7,38.94,0.06,0.61,109,3234,Correct
congruent_pinky_thumb,35,274,2,113,24.84,57.15,0.03,0.9,113,2706,Correct
congruent_pinky_thumb,35,275,2,113,41.14,54.26,0.05,0.85,113,2218,Correct
congruent_pinky_thumb,35,276,1,109,42.74,26.63,0.05,0.42,99,2689,Incorrect
congruent_pinky_thumb,35,277,1,109,85.0,65.84,0.1,1.03,109,751,Correct
congruent_pinky_thumb,35,278,1,109,41.43,23.58,0.05,0.37,99,729,Incorrect
congruent_pinky_thumb,35,279,2,112,86.12,61.17,0.1,0.96,112,767,Correct
congruent_pinky_thumb,35,280,1,109,43.4,26.14,0.05,0.41,109,1907,Correct
congruent_pinky_thumb,35,281,1,109,44.32,36.79,0.05,0.58,109,1138,Correct
congruent_pinky_thumb,35,282,1,109,65.15,56.71,0.07,0.89,109,1637,Correct
congruent_pinky_thumb,35,283,2,113,25.89,48.59,0.03,0.76,113,1187,Correct
congruent_pinky_thumb,35,284,2,113,29.63,46.55,0.03,0.73,113,617,Correct
congruent_pinky_thumb,35,285,1,99,46.08,66.64,0.05,1.05,109,4296,Incorrect
congruent_pinky_thumb,35,286,2,113,43.21,67.39,0.05,1.06,113,1648,Correct
congruent_pinky_thumb,35,287,1,109,56.15,46.47,0.06,0.73,109,3458,Correct
congruent_pinky_thumb,35,288,2,113,42.19,61.12,0.05,0.96,113,2998,Correct
congruent_pinky_thumb,35,289,1,109,35.66,13.07,0.04,0.21,109,3284,Correct
congruent_pinky_thumb,35,290,2,113,25.17,35.66,0.03,0.56,113,3759,Correct
congruent_pinky_thumb,35,291,1,99,33.64,41.86,0.04,0.66,109,6793,Incorrect
congruent_pinky_thumb,35,292,1,99,36.15,59.57,0.04,0.94,99,1769,Correct
congruent_pinky_thumb,35,293,1,99,43.55,55.52,0.05,0.87,99,1948,Correct
congruent_pinky_thumb,35,294,1,109,64.26,40.03,0.07,0.63,109,1560,Correct
congruent_pinky_thumb,35,295,1,109,67.95,52.58,0.08,0.83,109,3883,Correct
congruent_pinky_thumb,35,296,2,113,50.46,75.16,0.06,1.18,113,2020,Correct
congruent_pinky_thumb,35,297,2,112,47.7,18.31,0.05,0.29,113,4422,Incorrect
congruent_pinky_thumb,35,298,1,99,38.6,54.44,0.04,0.86,109,2064,Incorrect
congruent_pinky_thumb,35,299,2,113,28.0,42.04,0.03,0.66,113,1413,Correct
congruent_pinky_thumb,35,300,1,99,34.79,61.93,0.04,0.97,99,2980,Correct
congruent_pinky_thumb,35,301,2,113,32.51,50.52,0.04,0.79,113,1733,Correct
congruent_pinky_thumb,35,302,1,99,35.62,49.98,0.04,0.79,99,2491,Correct
congruent_pinky_thumb,35,303,2,113,26.78,45.61,0.03,0.72,113,1138,Correct
congruent_pinky_thumb,35,304,2,113,17.65,36.44,0.02,0.57,113,854,Correct
congruent_pinky_thumb,35,305,2,113,67.34,81.84,0.08,1.29,112,1217,Incorrect
congruent_pinky_thumb,35,306,1,109,59.18,37.88,0.07,0.6,99,923,Incorrect
congruent_pinky_thumb,35,307,2,113,41.02,62.42,0.05,0.98,113,2033,Correct
congruent_pinky_thumb,35,308,1,99,20.5,38.73,0.02,0.61,99,1215,Correct
congruent_pinky_thumb,35,309,2,113,69.41,84.2,0.08,1.32,112,748,Incorrect
congruent_pinky_thumb,35,310,1,109,85.93,66.66,0.1,1.05,109,1217,Correct
congruent_pinky_thumb,35,311,2,113,32.49,44.32,0.04,0.7,113,870,Correct
congruent_pinky_thumb,35,312,2,112,86.8,65.4,0.1,1.03,112,1321,Correct
congruent_pinky_thumb,35,313,2,112,41.73,28.64,0.05,0.45,112,8238,Correct
congruent_pinky_thumb,35,314,1,109,60.73,43.91,0.07,0.69,109,4247,Correct
congruent_pinky_thumb,35,315,1,109,36.9,23.75,0.04,0.37,99,5939,Incorrect
congruent_pinky_thumb,35,316,1,109,71.49,45.88,0.08,0.72,109,1641,Correct
congruent_pinky_thumb,35,317,1,99,25.84,43.31,0.03,0.68,109,1796,Incorrect
congruent_pinky_thumb,35,318,2,113,17.32,32.19,0.02,0.51,113,2561,Correct
congruent_pinky_thumb,35,319,2,113,21.84,36.59,0.02,0.57,113,956,Correct
congruent_pinky_thumb,35,320,2,113,34.76,49.14,0.04,0.77,113,752,Correct
congruent_pinky_thumb,35,321,2,113,58.49,79.4,0.07,1.25,112,708,Incorrect
congruent_pinky_thumb,35,322,2,112,31.03,13.86,0.03,0.22,113,1005,Incorrect
congruent_pinky_thumb,35,323,2,113,25.17,45.55,0.03,0.72,113,2399,Correct
congruent_pinky_thumb,35,324,1,99,41.67,67.9,0.05,1.07,99,2661,Correct
congruent_pinky_thumb,35,325,2,113,17.71,34.66,0.02,0.54,113,1740,Correct
congruent_pinky_thumb,35,326,2,113,65.88,79.45,0.07,1.25,112,3661,Incorrect
congruent_pinky_thumb,35,327,2,113,31.22,64.46,0.03,1.01,113,1639,Correct
congruent_pinky_thumb,35,328,2,113,51.36,67.97,0.06,1.07,112,2598,Incorrect
congruent_pinky_thumb,35,329,1,109,66.81,44.12,0.07,0.69,109,1002,Correct
congruent_pinky_thumb,35,330,2,112,81.76,65.23,0.09,1.02,112,981,Correct
congruent_pinky_thumb,35,331,2,112,60.54,33.12,0.07,0.52,112,6040,Correct
congruent_pinky_thumb,35,332,2,112,71.87,42.09,0.08,0.66,112,1581,Correct
congruent_pinky_thumb,35,333,2,113,34.98,54.88,0.04,0.86,113,5267,Correct
congruent_pinky_thumb,35,334,2,113,41.62,60.8,0.05,0.96,112,2101,Incorrect
congruent_pinky_thumb,35,335,1,109,65.57,43.67,0.07,0.69,109,1169,Correct
congruent_pinky_thumb,35,336,1,99,51.45,73.01,0.06,1.15,99,1697,Correct
congruent_pinky_thumb,35,337,2,113,45.27,56.94,0.05,0.89,113,1985,Correct
congruent_pinky_thumb,35,338,1,99,56.75,65.55,0.06,1.03,109,2094,Incorrect
congruent_pinky_thumb,35,339,1,109,45.31,37.32,0.05,0.59,99,2108,Incorrect
congruent_pinky_thumb,35,340,2,113,20.44,43.72,0.02,0.69,113,941,Correct
congruent_pinky_thumb,35,341,1,109,55.78,38.58,0.06,0.61,99,3564,Incorrect
congruent_pinky_thumb,35,342,2,113,52.93,62.3,0.06,0.98,113,784,Correct
congruent_pinky_thumb,35,343,1,109,49.9,33.5,0.06,0.53,99,2347,Incorrect
congruent_pinky_thumb,35,344,1,99,58.01,75.54,0.06,1.19,109,2448,Incorrect
congruent_pinky_thumb,35,345,2,112,64.05,51.56,0.07,0.81,112,1081,Correct
congruent_pinky_thumb,35,346,2,112,61.32,30.34,0.07,0.48,112,1437,Correct
congruent_pinky_thumb,35,347,1,99,58.68,85.18,0.07,1.34,109,4249,Incorrect
congruent_pinky_thumb,35,348,1,99,44.56,59.55,0.05,0.94,99,1285,Correct
congruent_pinky_thumb,35,349,2,113,67.17,80.34,0.08,1.26,112,1124,Incorrect
congruent_pinky_thumb,35,350,1,109,41.88,14.48,0.05,0.23,99,2952,Incorrect
congruent_pinky_thumb,35,351,2,112,68.27,49.24,0.08,0.77,112,3232,Correct
congruent_pinky_thumb,35,352,1,99,39.46,68.48,0.04,1.08,99,1393,Correct
congruent_pinky_thumb,35,353,2,112,43.95,21.77,0.05,0.34,113,2417,Incorrect
congruent_pinky_thumb,35,354,2,113,24.38,54.97,0.03,0.86,113,1774,Correct
congruent_pinky_thumb,35,355,1,109,45.21,25.09,0.05,0.39,109,3919,Correct
congruent_pinky_thumb,35,356,2,113,38.27,49.58,0.04,0.78,113,4229,Correct
congruent_pinky_thumb,35,357,1,109,61.01,32.72,0.07,0.51,109,2759,Correct
congruent_pinky_thumb,35,358,2,112,49.24,38.21,0.06,0.6,113,2119,Incorrect
congruent_pinky_thumb,35,359,2,113,22.6,37.12,0.03,0.58,113,1026,Correct
congruent_pinky_thumb,35,360,2,113,45.08,66.37,0.05,1.04,112,1151,Incorrect
congruent_pinky_thumb,35,361,2,113,28.77,40.36,0.03,0.63,113,1630,Correct
congruent_pinky_thumb,35,362,1,99,34.8,62.25,0.04,0.98,99,4251,Correct
congruent_pinky_thumb,35,363,1,109,39.77,16.07,0.04,0.25,99,2067,Incorrect
congruent_pinky_thumb,35,364,2,112,79.57,49.64,0.09,0.78,112,2024,Correct
congruent_pinky_thumb,35,365,2,112,49.75,37.94,0.06,0.6,113,1738,Incorrect
congruent_pinky_thumb,35,366,1,109,65.06,48.08,0.07,0.76,109,6139,Correct
congruent_pinky_thumb,35,367,2,112,69.31,43.49,0.08,0.68,112,2849,Correct
congruent_pinky_thumb,35,368,2,113,61.29,71.36,0.07,1.12,113,2128,Correct
congruent_pinky_thumb,35,369,2,112,47.92,26.19,0.05,0.41,113,3139,Incorrect
congruent_pinky_thumb,35,370,1,109,55.01,36.67,0.06,0.58,109,1629,Correct
congruent_pinky_thumb,35,371,2,113,21.14,33.8,0.02,0.53,112,1339,Incorrect
congruent_pinky_thumb,35,372,2,113,66.27,87.64,0.07,1.38,112,1210,Incorrect
congruent_pinky_thumb,35,373,2,113,22.85,51.67,0.03,0.81,113,828,Correct
congruent_pinky_thumb,35,374,1,109,51.17,34.39,0.06,0.54,109,2253,Correct
congruent_pinky_thumb,35,375,1,99,52.56,71.76,0.06,1.13,109,1134,Incorrect
congruent_pinky_thumb,35,376,1,109,72.0,45.04,0.08,0.71,109,1906,Correct
congruent_pinky_thumb,35,377,1,109,66.16,44.81,0.07,0.7,109,2460,Correct
congruent_pinky_thumb,35,378,1,109,46.12,33.07,0.05,0.52,113,2547,Incorrect
congruent_pinky_thumb,35,379,2,112,42.54,25.71,0.05,0.4,113,1219,Incorrect
congruent_pinky_thumb,35,380,2,113,51.91,60.93,0.06,0.96,113,1666,Correct
congruent_pinky_thumb,35,381,2,112,57.68,29.54,0.06,0.46,112,831,Correct
congruent_pinky_thumb,35,382,1,99,36.25,44.49,0.04,0.7,99,2120,Correct
congruent_pinky_thumb,35,383,1,99,30.93,46.31,0.03,0.73,99,1162,Correct
congruent_pinky_thumb,35,384,2,113,27.71,40.48,0.03,0.64,113,1862,Correct
congruent_pinky_thumb,35,385,1,109,40.23,15.74,0.05,0.25,109,1302,Correct
congruent_pinky_thumb,35,386,1,99,28.34,53.25,0.03,0.84,99,1813,Correct
congruent_pinky_thumb,35,387,2,112,81.08,59.55,0.09,0.94,112,929,Correct
congruent_pinky_thumb,35,388,2,113,15.02,41.39,0.02,0.65,113,3474,Correct
congruent_pinky_thumb,35,389,1,109,69.35,50.99,0.08,0.8,109,1301,Correct
congruent_pinky_thumb,35,390,2,112,61.65,34.14,0.07,0.54,112,837,Correct
congruent_pinky_thumb,35,391,2,112,59.49,37.83,0.07,0.59,112,802,Correct
congruent_pinky_thumb,35,392,2,113,46.66,55.08,0.05,0.87,113,1849,Correct
congruent_pinky_thumb,35,393,1,99,14.23,37.32,0.02,0.59,99,1009,Correct
congruent_pinky_thumb,35,394,2,112,64.55,33.11,0.07,0.52,112,704,Correct
congruent_pinky_thumb,35,395,1,109,59.16,29.65,0.07,0.47,99,1048,Incorrect
congruent_pinky_thumb,35,396,2,112,70.08,36.96,0.08,0.58,112,748,Correct
congruent_pinky_thumb,35,397,1,109,48.68,25.4,0.05,0.4,99,1977,Incorrect
congruent_pinky_thumb,35,398,2,113,38.35,61.86,0.04,0.97,113,1260,Correct
