condition,subject,trial,sub_task,cat,x,y,xt,yt,resp,rt,fb
congruent_pinky_thumb,39,0,1,109,50.51,21.34,0.06,0.34,99,2658,Incorrect
congruent_pinky_thumb,39,1,1,109,38.66,26.02,0.04,0.41,109,1400,Correct
congruent_pinky_thumb,39,2,1,109,46.15,23.98,0.05,0.38,99,910,Incorrect
congruent_pinky_thumb,39,3,1,99,66.16,88.97,0.07,1.4,99,1451,Correct
congruent_pinky_thumb,39,4,2,113,41.89,55.15,0.05,0.87,112,1458,Incorrect
congruent_pinky_thumb,39,5,1,109,73.35,58.85,0.08,0.92,99,1176,Incorrect
congruent_pinky_thumb,39,6,2,112,60.25,39.51,0.07,0.62,112,1208,Correct
congruent_pinky_thumb,39,7,2,112,73.1,49.47,0.08,0.78,112,2868,Correct
congruent_pinky_thumb,39,8,1,99,41.19,49.55,0.05,0.78,109,1245,Incorrect
congruent_pinky_thumb,39,9,1,109,51.06,40.41,0.06,0.63,109,1507,Correct
congruent_pinky_thumb,39,10,2,112,79.15,64.54,0.09,1.01,113,1498,Incorrect
congruent_pinky_thumb,39,11,2,113,52.23,67.17,0.06,1.06,112,1609,Incorrect
congruent_pinky_thumb,39,12,1,109,55.87,39.15,0.06,0.62,109,1231,Correct
congruent_pinky_thumb,39,13,1,99,22.7,52.61,0.03,0.83,109,1016,Incorrect
congruent_pinky_thumb,39,14,1,109,62.92,30.79,0.07,0.48,99,1136,Incorrect
congruent_pinky_thumb,39,15,1,99,54.82,77.67,0.06,1.22,99,1243,Correct
congruent_pinky_thumb,39,16,1,109,56.81,26.49,0.06,0.42,109,1457,Correct
congruent_pinky_thumb,39,17,1,99,50.84,58.34,0.06,0.92,99,704,Correct
congruent_pinky_thumb,39,18,1,109,74.67,59.11,0.08,0.93,109,1121,Correct
congruent_pinky_thumb,39,19,1,109,54.14,33.61,0.06,0.53,109,988,Correct
congruent_pinky_thumb,39,20,2,113,48.47,77.14,0.05,1.21,113,741,Correct
congruent_pinky_thumb,39,21,1,109,76.61,64.82,0.09,1.02,109,1039,Correct
congruent_pinky_thumb,39,22,1,109,83.4,65.89,0.09,1.03,109,960,Correct
congruent_pinky_thumb,39,23,2,113,32.55,55.36,0.04,0.87,112,1177,Incorrect
congruent_pinky_thumb,39,24,2,112,44.02,35.16,0.05,0.55,112,1616,Correct
congruent_pinky_thumb,39,25,1,99,29.87,53.35,0.03,0.84,99,970,Correct
congruent_pinky_thumb,39,26,1,109,68.88,56.13,0.08,0.88,109,775,Correct
congruent_pinky_thumb,39,27,1,109,62.89,48.2,0.07,0.76,109,912,Correct
congruent_pinky_thumb,39,28,2,113,37.88,46.89,0.04,0.74,113,1303,Correct
congruent_pinky_thumb,39,29,1,109,80.08,48.54,0.09,0.76,109,864,Correct
congruent_pinky_thumb,39,30,1,99,26.88,54.76,0.03,0.86,99,1041,Correct
congruent_pinky_thumb,39,31,2,112,50.07,39.94,0.06,0.63,113,1020,Incorrect
congruent_pinky_thumb,39,32,2,112,74.6,45.94,0.08,0.72,113,943,Incorrect
congruent_pinky_thumb,39,33,2,113,45.13,64.14,0.05,1.01,112,1358,Incorrect
congruent_pinky_thumb,39,34,1,109,72.6,41.83,0.08,0.66,109,1054,Correct
congruent_pinky_thumb,39,35,2,113,43.39,67.49,0.05,1.06,112,1106,Incorrect
congruent_pinky_thumb,39,36,2,113,18.26,48.09,0.02,0.76,112,2080,Incorrect
congruent_pinky_thumb,39,37,2,113,61.18,80.96,0.07,1.27,112,1160,Incorrect
congruent_pinky_thumb,39,38,1,99,23.83,47.69,0.03,0.75,109,913,Incorrect
congruent_pinky_thumb,39,39,1,99,49.64,60.81,0.06,0.96,109,690,Incorrect
congruent_pinky_thumb,39,40,1,99,37.36,69.04,0.04,1.08,109,2038,Incorrect
congruent_pinky_thumb,39,41,1,109,42.61,25.05,0.05,0.39,99,859,Incorrect
congruent_pinky_thumb,39,42,1,99,12.61,37.14,0.01,0.58,109,1916,Incorrect
congruent_pinky_thumb,39,43,2,112,60.6,29.73,0.07,0.47,113,1748,Incorrect
congruent_pinky_thumb,39,44,1,99,37.1,50.98,0.04,0.8,109,692,Incorrect
congruent_pinky_thumb,39,45,1,99,45.36,61.35,0.05,0.96,109,877,Incorrect
congruent_pinky_thumb,39,46,1,99,52.03,63.87,0.06,1.0,99,800,Correct
congruent_pinky_thumb,39,47,2,113,56.41,80.78,0.06,1.27,113,2738,Correct
congruent_pinky_thumb,39,48,1,109,51.16,35.35,0.06,0.56,109,1023,Correct
congruent_pinky_thumb,39,49,1,109,48.75,27.25,0.05,0.43,109,809,Correct
congruent_pinky_thumb,39,50,1,99,63.43,78.34,0.07,1.23,99,828,Correct
congruent_pinky_thumb,39,51,2,113,36.15,66.91,0.04,1.05,113,1241,Correct
congruent_pinky_thumb,39,52,1,99,65.22,85.38,0.07,1.34,99,3282,Correct
congruent_pinky_thumb,39,53,1,99,52.76,64.21,0.06,1.01,99,874,Correct
congruent_pinky_thumb,39,54,1,99,60.08,78.82,0.07,1.24,99,755,Correct
congruent_pinky_thumb,39,55,2,113,35.72,67.32,0.04,1.06,112,1455,Incorrect
congruent_pinky_thumb,39,56,1,109,58.19,36.13,0.07,0.57,109,1386,Correct
congruent_pinky_thumb,39,57,1,109,53.75,35.99,0.06,0.57,109,937,Correct
congruent_pinky_thumb,39,58,1,109,69.28,44.74,0.08,0.7,109,887,Correct
congruent_pinky_thumb,39,59,2,112,52.18,36.16,0.06,0.57,112,1436,Correct
congruent_pinky_thumb,39,60,1,109,87.2,69.52,0.1,1.09,99,1928,Incorrect
congruent_pinky_thumb,39,61,1,109,61.46,41.11,0.07,0.65,109,904,Correct
congruent_pinky_thumb,39,62,1,99,27.26,44.57,0.03,0.7,109,845,Incorrect
congruent_pinky_thumb,39,63,1,99,53.93,67.95,0.06,1.07,99,1171,Correct
congruent_pinky_thumb,39,64,2,112,47.73,27.85,0.05,0.44,113,1159,Incorrect
congruent_pinky_thumb,39,65,1,109,77.48,51.26,0.09,0.81,109,1651,Correct
congruent_pinky_thumb,39,66,2,112,88.74,68.62,0.1,1.08,112,1122,Correct
congruent_pinky_thumb,39,67,2,113,52.38,74.34,0.06,1.17,112,991,Incorrect
congruent_pinky_thumb,39,68,1,109,61.54,33.24,0.07,0.52,109,2666,Correct
congruent_pinky_thumb,39,69,1,109,68.1,44.73,0.08,0.7,109,993,Correct
congruent_pinky_thumb,39,70,1,109,43.62,21.31,0.05,0.33,109,972,Correct
congruent_pinky_thumb,39,71,2,113,12.57,38.52,0.01,0.61,113,1159,Correct
congruent_pinky_thumb,39,72,2,113,26.69,57.82,0.03,0.91,112,1880,Incorrect
congruent_pinky_thumb,39,73,1,99,68.09,85.4,0.08,1.34,109,1071,Incorrect
congruent_pinky_thumb,39,74,1,99,17.51,38.17,0.02,0.6,109,1616,Incorrect
congruent_pinky_thumb,39,75,2,112,42.6,15.59,0.05,0.24,113,1683,Incorrect
congruent_pinky_thumb,39,76,1,109,47.95,25.51,0.05,0.4,109,863,Correct
congruent_pinky_thumb,39,77,2,112,41.2,31.05,0.05,0.49,112,818,Correct
congruent_pinky_thumb,39,78,1,109,63.34,42.89,0.07,0.67,99,1421,Incorrect
congruent_pinky_thumb,39,79,1,109,78.92,47.68,0.09,0.75,109,721,Correct
congruent_pinky_thumb,39,80,2,112,56.91,39.15,0.06,0.62,112,2559,Correct
congruent_pinky_thumb,39,81,2,113,41.46,64.7,0.05,1.02,113,745,Correct
congruent_pinky_thumb,39,82,1,109,57.75,28.86,0.06,0.45,109,1435,Correct
congruent_pinky_thumb,39,83,2,113,35.27,59.11,0.04,0.93,113,947,Correct
congruent_pinky_thumb,39,84,2,113,36.02,67.52,0.04,1.06,113,675,Correct
congruent_pinky_thumb,39,85,2,112,41.27,14.47,0.05,0.23,112,574,Correct
congruent_pinky_thumb,39,86,1,109,62.08,54.62,0.07,0.86,109,1397,Correct
congruent_pinky_thumb,39,87,1,99,22.98,51.96,0.03,0.82,99,893,Correct
congruent_pinky_thumb,39,88,1,99,20.53,35.14,0.02,0.55,99,705,Correct
congruent_pinky_thumb,39,89,2,113,24.32,50.85,0.03,0.8,113,1062,Correct
congruent_pinky_thumb,39,90,1,109,49.62,20.68,0.06,0.32,109,727,Correct
congruent_pinky_thumb,39,91,2,112,81.03,51.28,0.09,0.81,113,1275,Incorrect
congruent_pinky_thumb,39,92,1,99,36.49,44.58,0.04,0.7,99,2115,Correct
congruent_pinky_thumb,39,93,2,112,35.37,14.52,0.04,0.23,112,1404,Correct
congruent_pinky_thumb,39,94,2,113,40.66,54.58,0.05,0.86,113,1225,Correct
congruent_pinky_thumb,39,95,1,109,80.91,54.67,0.09,0.86,109,1074,Correct
congruent_pinky_thumb,39,96,2,112,67.56,42.95,0.08,0.67,112,2991,Correct
congruent_pinky_thumb,39,97,1,99,18.03,48.26,0.02,0.76,99,791,Correct
congruent_pinky_thumb,39,98,1,109,71.67,44.03,0.08,0.69,109,887,Correct
congruent_pinky_thumb,39,99,2,112,69.95,57.78,0.08,0.91,112,2036,Correct
congruent_pinky_thumb,39,100,2,113,21.32,47.52,0.02,0.75,113,710,Correct
congruent_pinky_thumb,39,101,2,113,16.87,39.55,0.02,0.62,112,1070,Incorrect
congruent_pinky_thumb,39,102,2,112,34.03,12.01,0.04,0.19,112,1334,Correct
congruent_pinky_thumb,39,103,2,113,21.09,40.41,0.02,0.63,113,779,Correct
congruent_pinky_thumb,39,104,2,113,32.66,57.65,0.04,0.91,113,755,Correct
congruent_pinky_thumb,39,105,2,113,49.88,72.81,0.06,1.14,113,773,Correct
congruent_pinky_thumb,39,106,2,113,30.71,44.69,0.03,0.7,113,787,Correct
congruent_pinky_thumb,39,107,1,109,43.34,32.95,0.05,0.52,109,759,Correct
congruent_pinky_thumb,39,108,1,109,72.63,57.84,0.08,0.91,109,596,Correct
congruent_pinky_thumb,39,109,1,99,21.14,43.13,0.02,0.68,99,488,Correct
congruent_pinky_thumb,39,110,2,112,38.1,16.83,0.04,0.26,112,961,Correct
congruent_pinky_thumb,39,111,2,112,63.51,33.48,0.07,0.53,112,1641,Correct
congruent_pinky_thumb,39,112,2,112,53.88,46.14,0.06,0.72,112,705,Correct
congruent_pinky_thumb,39,113,2,112,42.14,13.68,0.05,0.21,112,668,Correct
congruent_pinky_thumb,39,114,1,109,56.13,29.58,0.06,0.46,109,535,Correct
congruent_pinky_thumb,39,115,1,109,59.94,42.95,0.07,0.67,109,516,Correct
congruent_pinky_thumb,39,116,1,109,54.4,25.01,0.06,0.39,109,678,Correct
congruent_pinky_thumb,39,117,2,113,11.59,35.01,0.01,0.55,112,1097,Incorrect
congruent_pinky_thumb,39,118,2,112,44.36,35.23,0.05,0.55,112,1108,Correct
congruent_pinky_thumb,39,119,2,112,49.89,38.73,0.06,0.61,112,1221,Correct
congruent_pinky_thumb,39,120,2,112,49.3,33.55,0.06,0.53,112,797,Correct
congruent_pinky_thumb,39,121,1,109,80.63,61.76,0.09,0.97,109,1874,Correct
congruent_pinky_thumb,39,122,1,99,46.05,72.48,0.05,1.14,109,1713,Incorrect
congruent_pinky_thumb,39,123,2,112,69.11,41.42,0.08,0.65,112,1023,Correct
congruent_pinky_thumb,39,124,2,113,12.87,34.45,0.01,0.54,113,508,Correct
congruent_pinky_thumb,39,125,2,113,24.11,36.5,0.03,0.57,113,718,Correct
congruent_pinky_thumb,39,126,2,112,64.7,36.37,0.07,0.57,112,901,Correct
congruent_pinky_thumb,39,127,2,113,11.1,32.45,0.01,0.51,113,805,Correct
congruent_pinky_thumb,39,128,1,109,73.8,63.47,0.08,1.0,99,1281,Incorrect
congruent_pinky_thumb,39,129,1,109,52.56,33.04,0.06,0.52,109,3045,Correct
congruent_pinky_thumb,39,130,1,109,60.45,47.21,0.07,0.74,109,1311,Correct
congruent_pinky_thumb,39,131,1,109,30.05,12.73,0.03,0.2,99,938,Incorrect
congruent_pinky_thumb,39,132,1,109,73.18,53.61,0.08,0.84,109,741,Correct
congruent_pinky_thumb,39,133,1,99,50.94,73.23,0.06,1.15,109,1891,Incorrect
congruent_pinky_thumb,39,134,2,112,70.04,51.99,0.08,0.82,113,1890,Incorrect
congruent_pinky_thumb,39,135,1,99,28.88,42.82,0.03,0.67,99,2018,Correct
congruent_pinky_thumb,39,136,1,99,25.6,40.95,0.03,0.64,99,1061,Correct
congruent_pinky_thumb,39,137,1,109,43.08,24.15,0.05,0.38,109,2585,Correct
congruent_pinky_thumb,39,138,1,109,70.97,54.76,0.08,0.86,109,858,Correct
congruent_pinky_thumb,39,139,2,112,47.8,19.02,0.05,0.3,112,837,Correct
congruent_pinky_thumb,39,140,2,113,33.95,66.1,0.04,1.04,113,560,Correct
congruent_pinky_thumb,39,141,2,112,35.8,25.66,0.04,0.4,112,1434,Correct
congruent_pinky_thumb,39,142,2,113,32.3,57.13,0.04,0.9,113,1710,Correct
congruent_pinky_thumb,39,143,1,109,72.25,41.03,0.08,0.64,109,864,Correct
congruent_pinky_thumb,39,144,1,99,49.34,73.12,0.06,1.15,109,847,Incorrect
congruent_pinky_thumb,39,145,1,109,71.51,54.47,0.08,0.86,109,788,Correct
congruent_pinky_thumb,39,146,1,99,35.04,65.92,0.04,1.04,99,909,Correct
congruent_pinky_thumb,39,147,1,99,26.57,39.22,0.03,0.62,99,898,Correct
congruent_pinky_thumb,39,148,2,113,55.61,71.99,0.06,1.13,112,1941,Incorrect
congruent_pinky_thumb,39,149,2,112,66.15,45.32,0.07,0.71,113,736,Incorrect
congruent_pinky_thumb,39,150,2,113,31.08,43.71,0.03,0.69,113,1082,Correct
congruent_pinky_thumb,39,151,1,99,35.32,60.87,0.04,0.96,99,1307,Correct
congruent_pinky_thumb,39,152,2,112,63.21,51.46,0.07,0.81,113,1260,Incorrect
congruent_pinky_thumb,39,153,2,113,23.09,37.09,0.03,0.58,113,2217,Correct
congruent_pinky_thumb,39,154,1,109,73.6,53.93,0.08,0.85,109,1010,Correct
congruent_pinky_thumb,39,155,1,109,83.44,59.79,0.09,0.94,109,1446,Correct
congruent_pinky_thumb,39,156,1,99,51.31,74.71,0.06,1.17,109,827,Incorrect
congruent_pinky_thumb,39,157,1,109,69.18,58.8,0.08,0.92,109,1411,Correct
congruent_pinky_thumb,39,158,2,112,71.43,47.72,0.08,0.75,113,2975,Incorrect
congruent_pinky_thumb,39,159,1,109,45.31,37.95,0.05,0.6,109,1350,Correct
congruent_pinky_thumb,39,160,1,109,60.5,49.05,0.07,0.77,109,759,Correct
congruent_pinky_thumb,39,161,2,113,42.89,60.61,0.05,0.95,113,927,Correct
congruent_pinky_thumb,39,162,2,112,47.54,17.59,0.05,0.28,113,1057,Incorrect
congruent_pinky_thumb,39,163,2,112,59.52,46.09,0.07,0.72,112,1790,Correct
congruent_pinky_thumb,39,164,1,99,38.1,64.15,0.04,1.01,99,1607,Correct
congruent_pinky_thumb,39,165,2,112,37.64,28.59,0.04,0.45,113,700,Incorrect
congruent_pinky_thumb,39,166,2,112,85.91,67.25,0.1,1.06,113,1479,Incorrect
congruent_pinky_thumb,39,167,2,113,63.69,86.11,0.07,1.35,112,842,Incorrect
congruent_pinky_thumb,39,168,2,112,36.49,25.89,0.04,0.41,112,1052,Correct
congruent_pinky_thumb,39,169,1,99,33.33,47.97,0.04,0.75,99,3242,Correct
congruent_pinky_thumb,39,170,2,112,87.56,66.19,0.1,1.04,113,1910,Incorrect
congruent_pinky_thumb,39,171,2,113,45.4,57.98,0.05,0.91,113,760,Correct
congruent_pinky_thumb,39,172,1,99,40.88,72.7,0.05,1.14,99,867,Correct
congruent_pinky_thumb,39,173,1,109,41.34,30.71,0.05,0.48,109,828,Correct
congruent_pinky_thumb,39,174,2,113,38.39,58.26,0.04,0.92,113,696,Correct
congruent_pinky_thumb,39,175,2,112,89.44,68.32,0.1,1.07,112,537,Correct
congruent_pinky_thumb,39,176,1,109,59.88,40.99,0.07,0.64,99,994,Incorrect
congruent_pinky_thumb,39,177,2,113,33.01,53.59,0.04,0.84,113,701,Correct
congruent_pinky_thumb,39,178,2,113,56.26,70.48,0.06,1.11,112,1073,Incorrect
congruent_pinky_thumb,39,179,1,99,47.59,57.52,0.05,0.9,109,994,Incorrect
congruent_pinky_thumb,39,180,2,112,68.11,53.98,0.08,0.85,112,2474,Correct
congruent_pinky_thumb,39,181,2,113,42.89,55.89,0.05,0.88,113,1198,Correct
congruent_pinky_thumb,39,182,2,113,38.22,51.15,0.04,0.8,113,740,Correct
congruent_pinky_thumb,39,183,1,109,37.29,12.88,0.04,0.2,109,1102,Correct
congruent_pinky_thumb,39,184,2,112,52.95,36.3,0.06,0.57,112,1378,Correct
congruent_pinky_thumb,39,185,1,109,36.35,11.64,0.04,0.18,109,1056,Correct
congruent_pinky_thumb,39,186,1,109,59.74,46.05,0.07,0.72,99,634,Incorrect
congruent_pinky_thumb,39,187,2,112,32.7,14.26,0.04,0.22,113,753,Incorrect
congruent_pinky_thumb,39,188,2,113,47.37,68.59,0.05,1.08,112,1887,Incorrect
congruent_pinky_thumb,39,189,2,112,83.66,65.19,0.09,1.02,113,739,Incorrect
congruent_pinky_thumb,39,190,2,112,67.45,50.53,0.08,0.79,112,880,Correct
congruent_pinky_thumb,39,191,2,113,49.22,56.96,0.06,0.89,113,2171,Correct
congruent_pinky_thumb,39,192,2,112,71.02,45.8,0.08,0.72,112,1031,Correct
congruent_pinky_thumb,39,193,2,113,42.0,63.41,0.05,1.0,113,882,Correct
congruent_pinky_thumb,39,194,2,112,46.28,19.52,0.05,0.31,113,1459,Incorrect
congruent_pinky_thumb,39,195,1,109,43.43,15.74,0.05,0.25,99,1567,Incorrect
congruent_pinky_thumb,39,196,2,113,44.14,74.03,0.05,1.16,113,1360,Correct
congruent_pinky_thumb,39,197,1,99,51.7,69.32,0.06,1.09,99,1486,Correct
congruent_pinky_thumb,39,198,1,99,63.73,74.82,0.07,1.18,99,745,Correct
congruent_pinky_thumb,39,199,1,109,56.46,34.43,0.06,0.54,109,687,Correct
congruent_pinky_thumb,39,200,2,113,28.44,51.66,0.03,0.81,113,741,Correct
congruent_pinky_thumb,39,201,1,99,29.36,59.8,0.03,0.94,99,757,Correct
congruent_pinky_thumb,39,202,2,113,48.86,61.31,0.05,0.96,113,1857,Correct
congruent_pinky_thumb,39,203,1,99,32.02,42.45,0.04,0.67,99,887,Correct
congruent_pinky_thumb,39,204,1,109,55.19,42.97,0.06,0.67,99,670,Incorrect
congruent_pinky_thumb,39,205,1,109,71.72,58.01,0.08,0.91,109,1061,Correct
congruent_pinky_thumb,39,206,2,112,43.17,29.17,0.05,0.46,112,1435,Correct
congruent_pinky_thumb,39,207,1,109,65.17,55.8,0.07,0.88,109,1568,Correct
congruent_pinky_thumb,39,208,1,109,48.81,24.07,0.05,0.38,99,1737,Incorrect
congruent_pinky_thumb,39,209,2,113,29.17,48.47,0.03,0.76,113,794,Correct
congruent_pinky_thumb,39,210,2,112,42.75,16.02,0.05,0.25,112,758,Correct
congruent_pinky_thumb,39,211,2,113,56.61,78.32,0.06,1.23,113,913,Correct
congruent_pinky_thumb,39,212,2,112,67.49,36.82,0.08,0.58,112,922,Correct
congruent_pinky_thumb,39,213,1,99,23.34,42.5,0.03,0.67,99,907,Correct
congruent_pinky_thumb,39,214,1,109,80.16,61.47,0.09,0.97,109,724,Correct
congruent_pinky_thumb,39,215,2,113,36.01,52.15,0.04,0.82,113,1174,Correct
congruent_pinky_thumb,39,216,2,113,12.06,34.24,0.01,0.54,112,2105,Incorrect
congruent_pinky_thumb,39,217,1,99,18.31,43.98,0.02,0.69,99,970,Correct
congruent_pinky_thumb,39,218,2,112,43.75,22.44,0.05,0.35,113,1723,Incorrect
congruent_pinky_thumb,39,219,2,112,47.26,34.48,0.05,0.54,112,930,Correct
congruent_pinky_thumb,39,220,2,112,75.38,64.56,0.08,1.01,113,759,Incorrect
congruent_pinky_thumb,39,221,1,109,37.47,26.31,0.04,0.41,109,1534,Correct
congruent_pinky_thumb,39,222,1,99,27.88,47.92,0.03,0.75,99,575,Correct
congruent_pinky_thumb,39,223,1,109,64.83,48.85,0.07,0.77,99,772,Incorrect
congruent_pinky_thumb,39,224,1,109,66.78,40.31,0.07,0.63,99,1199,Incorrect
congruent_pinky_thumb,39,225,1,109,32.01,13.39,0.04,0.21,99,769,Incorrect
congruent_pinky_thumb,39,226,1,99,21.86,46.8,0.02,0.74,109,1839,Incorrect
congruent_pinky_thumb,39,227,2,112,34.3,15.22,0.04,0.24,112,1961,Correct
congruent_pinky_thumb,39,228,2,112,74.74,48.05,0.08,0.75,113,631,Incorrect
congruent_pinky_thumb,39,229,2,112,51.5,38.06,0.06,0.6,112,1129,Correct
congruent_pinky_thumb,39,230,1,109,66.04,36.67,0.07,0.58,109,1551,Correct
congruent_pinky_thumb,39,231,1,99,43.32,67.87,0.05,1.07,99,1313,Correct
congruent_pinky_thumb,39,232,1,109,63.45,34.51,0.07,0.54,109,638,Correct
congruent_pinky_thumb,39,233,1,99,60.4,73.29,0.07,1.15,99,917,Correct
congruent_pinky_thumb,39,234,1,109,37.42,24.13,0.04,0.38,109,626,Correct
congruent_pinky_thumb,39,235,1,99,14.59,33.63,0.02,0.53,99,673,Correct
congruent_pinky_thumb,39,236,2,112,75.28,63.72,0.08,1.0,112,845,Correct
congruent_pinky_thumb,39,237,1,99,45.66,53.78,0.05,0.84,109,776,Incorrect
congruent_pinky_thumb,39,238,2,113,68.8,83.75,0.08,1.32,112,751,Incorrect
congruent_pinky_thumb,39,239,2,112,78.42,63.25,0.09,0.99,113,1224,Incorrect
congruent_pinky_thumb,39,240,2,113,12.24,32.94,0.01,0.52,113,1716,Correct
congruent_pinky_thumb,39,241,1,109,78.59,63.09,0.09,0.99,109,1255,Correct
congruent_pinky_thumb,39,242,1,109,34.47,15.21,0.04,0.24,99,1051,Incorrect
congruent_pinky_thumb,39,243,1,99,38.72,68.27,0.04,1.07,99,758,Correct
congruent_pinky_thumb,39,244,1,99,19.77,45.0,0.02,0.71,99,1217,Correct
congruent_pinky_thumb,39,245,2,113,50.57,71.76,0.06,1.13,112,1249,Incorrect
congruent_pinky_thumb,39,246,2,112,46.97,23.6,0.05,0.37,113,911,Incorrect
congruent_pinky_thumb,39,247,1,99,14.44,39.01,0.02,0.61,109,1243,Incorrect
congruent_pinky_thumb,39,248,1,99,38.0,45.57,0.04,0.72,99,1635,Correct
congruent_pinky_thumb,39,249,2,112,47.1,38.97,0.05,0.61,113,1113,Incorrect
congruent_pinky_thumb,39,250,2,113,37.47,68.56,0.04,1.08,112,1930,Incorrect
congruent_pinky_thumb,39,251,2,112,76.68,46.36,0.09,0.73,112,946,Correct
congruent_pinky_thumb,39,252,1,109,68.55,43.22,0.08,0.68,99,1650,Incorrect
congruent_pinky_thumb,39,253,1,109,76.84,55.84,0.09,0.88,109,770,Correct
congruent_pinky_thumb,39,254,2,113,14.94,42.57,0.02,0.67,113,762,Correct
congruent_pinky_thumb,39,255,2,113,35.49,68.37,0.04,1.07,113,2543,Correct
congruent_pinky_thumb,39,256,1,109,73.36,49.03,0.08,0.77,109,1016,Correct
congruent_pinky_thumb,39,257,2,113,35.38,52.37,0.04,0.82,112,1943,Incorrect
congruent_pinky_thumb,39,258,1,99,34.13,57.25,0.04,0.9,109,1223,Incorrect
congruent_pinky_thumb,39,259,1,99,67.94,83.67,0.08,1.31,99,1208,Correct
congruent_pinky_thumb,39,260,1,109,59.54,42.58,0.07,0.67,109,975,Correct
congruent_pinky_thumb,39,261,1,109,45.64,25.01,0.05,0.39,109,741,Correct
congruent_pinky_thumb,39,262,2,112,89.03,65.83,0.1,1.03,113,757,Incorrect
congruent_pinky_thumb,39,263,1,99,32.54,53.03,0.04,0.83,99,1323,Correct
congruent_pinky_thumb,39,264,1,99,26.34,54.8,0.03,0.86,99,793,Correct
congruent_pinky_thumb,39,265,2,112,53.11,43.94,0.06,0.69,112,507,Correct
congruent_pinky_thumb,39,266,2,113,56.21,76.65,0.06,1.2,112,1093,Incorrect
congruent_pinky_thumb,39,267,2,113,22.22,41.41,0.02,0.65,112,2168,Incorrect
congruent_pinky_thumb,39,268,1,99,53.54,70.1,0.06,1.1,99,1337,Correct
congruent_pinky_thumb,39,269,2,112,44.06,22.62,0.05,0.36,112,2071,Correct
congruent_pinky_thumb,39,270,2,113,38.19,47.08,0.04,0.74,113,711,Correct
congruent_pinky_thumb,39,271,2,113,64.32,87.35,0.07,1.37,112,1115,Incorrect
congruent_pinky_thumb,39,272,2,113,49.56,76.42,0.06,1.2,113,815,Correct
congruent_pinky_thumb,39,273,2,113,51.72,72.9,0.06,1.15,113,720,Correct
congruent_pinky_thumb,39,274,2,113,48.29,79.63,0.05,1.25,113,892,Correct
congruent_pinky_thumb,39,275,2,112,43.78,26.2,0.05,0.41,112,606,Correct
congruent_pinky_thumb,39,276,2,112,84.07,62.31,0.09,0.98,113,1784,Incorrect
congruent_pinky_thumb,39,277,1,109,49.97,34.72,0.06,0.55,109,2373,Correct
congruent_pinky_thumb,39,278,1,99,16.15,44.49,0.02,0.7,99,941,Correct
congruent_pinky_thumb,39,279,1,99,21.16,40.67,0.02,0.64,99,814,Correct
congruent_pinky_thumb,39,280,2,112,57.71,46.82,0.06,0.74,112,873,Correct
congruent_pinky_thumb,39,281,2,112,45.63,30.74,0.05,0.48,112,765,Correct
congruent_pinky_thumb,39,282,1,99,65.28,84.93,0.07,1.33,99,962,Correct
congruent_pinky_thumb,39,283,2,113,52.39,68.99,0.06,1.08,112,918,Incorrect
congruent_pinky_thumb,39,284,2,112,52.62,27.49,0.06,0.43,112,680,Correct
congruent_pinky_thumb,39,285,1,99,27.22,37.25,0.03,0.59,99,976,Correct
congruent_pinky_thumb,39,286,1,99,66.59,87.43,0.07,1.37,109,1908,Incorrect
congruent_pinky_thumb,39,287,2,113,13.64,38.16,0.02,0.6,113,1710,Correct
congruent_pinky_thumb,39,288,2,112,63.57,44.27,0.07,0.7,112,457,Correct
congruent_pinky_thumb,39,289,2,113,24.98,41.75,0.03,0.66,113,1052,Correct
congruent_pinky_thumb,39,290,2,113,65.7,78.5,0.07,1.23,112,489,Incorrect
congruent_pinky_thumb,39,291,1,109,44.18,22.56,0.05,0.35,109,1620,Correct
congruent_pinky_thumb,39,292,2,113,31.19,43.13,0.03,0.68,112,1070,Incorrect
congruent_pinky_thumb,39,293,1,109,41.62,31.99,0.05,0.5,109,1859,Correct
congruent_pinky_thumb,39,294,1,99,56.68,65.11,0.06,1.02,109,973,Incorrect
congruent_pinky_thumb,39,295,2,112,58.5,28.69,0.07,0.45,112,1132,Correct
congruent_pinky_thumb,39,296,1,99,33.39,60.54,0.04,0.95,99,1331,Correct
congruent_pinky_thumb,39,297,1,99,30.93,57.08,0.03,0.9,99,1566,Correct
congruent_pinky_thumb,39,298,1,99,51.48,74.19,0.06,1.17,99,1432,Correct
congruent_pinky_thumb,39,299,2,113,33.43,41.84,0.04,0.66,113,1075,Correct
congruent_pinky_thumb,39,300,2,112,40.13,19.04,0.04,0.3,112,985,Correct
congruent_pinky_thumb,39,301,2,113,57.58,77.37,0.06,1.22,113,1001,Correct
congruent_pinky_thumb,39,302,1,109,57.44,50.43,0.06,0.79,99,2291,Incorrect
congruent_pinky_thumb,39,303,2,112,47.35,38.89,0.05,0.61,113,2894,Incorrect
congruent_pinky_thumb,39,304,2,112,60.11,38.16,0.07,0.6,112,903,Correct
congruent_pinky_thumb,39,305,2,113,36.18,52.53,0.04,0.83,113,932,Correct
congruent_pinky_thumb,39,306,1,109,72.28,51.72,0.08,0.81,109,814,Correct
congruent_pinky_thumb,39,307,2,112,57.75,36.97,0.06,0.58,112,1558,Correct
congruent_pinky_thumb,39,308,2,112,68.87,43.39,0.08,0.68,112,1099,Correct
congruent_pinky_thumb,39,309,2,113,36.99,58.71,0.04,0.92,113,870,Correct
congruent_pinky_thumb,39,310,2,113,28.73,55.79,0.03,0.88,112,873,Incorrect
congruent_pinky_thumb,39,311,2,112,76.98,59.66,0.09,0.94,112,1584,Correct
congruent_pinky_thumb,39,312,1,99,53.99,70.74,0.06,1.11,109,861,Incorrect
congruent_pinky_thumb,39,313,2,113,23.52,36.38,0.03,0.57,113,959,Correct
congruent_pinky_thumb,39,314,2,113,42.74,57.79,0.05,0.91,113,1538,Correct
congruent_pinky_thumb,39,315,2,113,10.29,34.04,0.01,0.53,113,758,Correct
congruent_pinky_thumb,39,316,1,109,54.73,37.08,0.06,0.58,109,1084,Correct
congruent_pinky_thumb,39,317,2,112,57.36,43.45,0.06,0.68,112,1319,Correct
congruent_pinky_thumb,39,318,2,112,73.54,59.68,0.08,0.94,112,1050,Correct
congruent_pinky_thumb,39,319,2,113,59.14,80.46,0.07,1.26,112,988,Incorrect
congruent_pinky_thumb,39,320,1,99,30.52,50.53,0.03,0.79,99,2537,Correct
congruent_pinky_thumb,39,321,2,113,62.0,87.85,0.07,1.38,112,1335,Incorrect
congruent_pinky_thumb,39,322,2,113,34.34,51.03,0.04,0.8,112,624,Incorrect
congruent_pinky_thumb,39,323,2,112,70.72,58.01,0.08,0.91,112,1223,Correct
congruent_pinky_thumb,39,324,1,99,45.01,72.18,0.05,1.13,109,2238,Incorrect
congruent_pinky_thumb,39,325,2,113,21.97,47.1,0.02,0.74,113,1511,Correct
congruent_pinky_thumb,39,326,1,109,53.9,26.87,0.06,0.42,109,1820,Correct
congruent_pinky_thumb,39,327,1,109,60.74,48.36,0.07,0.76,99,1833,Incorrect
congruent_pinky_thumb,39,328,2,112,46.66,37.32,0.05,0.59,112,918,Correct
congruent_pinky_thumb,39,329,1,109,60.57,46.69,0.07,0.73,109,1616,Correct
congruent_pinky_thumb,39,330,2,112,56.26,41.85,0.06,0.66,112,1283,Correct
congruent_pinky_thumb,39,331,2,113,57.62,75.11,0.06,1.18,113,1381,Correct
congruent_pinky_thumb,39,332,2,112,36.46,22.81,0.04,0.36,112,922,Correct
congruent_pinky_thumb,39,333,1,99,54.43,63.36,0.06,1.0,99,797,Correct
congruent_pinky_thumb,39,334,1,99,34.61,48.53,0.04,0.76,99,831,Correct
congruent_pinky_thumb,39,335,1,109,65.34,37.16,0.07,0.58,99,1304,Incorrect
congruent_pinky_thumb,39,336,2,113,53.68,80.11,0.06,1.26,113,1061,Correct
congruent_pinky_thumb,39,337,1,99,29.97,49.09,0.03,0.77,99,806,Correct
congruent_pinky_thumb,39,338,2,112,67.15,55.45,0.08,0.87,113,1266,Incorrect
congruent_pinky_thumb,39,339,2,112,53.6,34.45,0.06,0.54,112,623,Correct
congruent_pinky_thumb,39,340,2,112,39.16,27.13,0.04,0.43,113,509,Incorrect
congruent_pinky_thumb,39,341,1,99,28.9,38.48,0.03,0.6,99,1610,Correct
congruent_pinky_thumb,39,342,2,113,61.21,80.06,0.07,1.26,112,1301,Incorrect
congruent_pinky_thumb,39,343,2,112,75.45,53.56,0.08,0.84,112,1229,Correct
congruent_pinky_thumb,39,344,1,109,45.28,16.34,0.05,0.26,99,607,Incorrect
congruent_pinky_thumb,39,345,2,113,26.08,56.28,0.03,0.88,113,1122,Correct
congruent_pinky_thumb,39,346,2,113,35.79,64.15,0.04,1.01,113,1449,Correct
congruent_pinky_thumb,39,347,1,99,35.61,56.23,0.04,0.88,99,1424,Correct
congruent_pinky_thumb,39,348,2,113,37.2,57.72,0.04,0.91,113,1028,Correct
congruent_pinky_thumb,39,349,1,109,45.72,25.68,0.05,0.4,109,1410,Correct
congruent_pinky_thumb,39,350,2,113,48.72,60.24,0.05,0.95,112,1262,Incorrect
congruent_pinky_thumb,39,351,1,109,59.62,38.25,0.07,0.6,109,846,Correct
congruent_pinky_thumb,39,352,1,99,31.08,60.23,0.03,0.95,99,1366,Correct
congruent_pinky_thumb,39,353,2,113,49.94,70.07,0.06,1.1,113,889,Correct
congruent_pinky_thumb,39,354,2,113,17.41,31.77,0.02,0.5,113,1732,Correct
congruent_pinky_thumb,39,355,1,99,42.16,58.15,0.05,0.91,109,1252,Incorrect
congruent_pinky_thumb,39,356,2,112,65.52,56.06,0.07,0.88,113,1267,Incorrect
congruent_pinky_thumb,39,357,2,113,52.08,72.81,0.06,1.14,113,1879,Correct
congruent_pinky_thumb,39,358,2,113,36.65,51.47,0.04,0.81,112,883,Incorrect
congruent_pinky_thumb,39,359,2,113,30.53,39.21,0.03,0.62,112,2721,Incorrect
congruent_pinky_thumb,39,360,2,113,25.96,47.61,0.03,0.75,113,694,Correct
congruent_pinky_thumb,39,361,1,99,45.0,63.84,0.05,1.0,99,1438,Correct
congruent_pinky_thumb,39,362,1,99,53.82,83.99,0.06,1.32,99,850,Correct
congruent_pinky_thumb,39,363,2,113,44.97,77.09,0.05,1.21,113,1113,Correct
congruent_pinky_thumb,39,364,1,109,66.46,53.3,0.07,0.84,99,1329,Incorrect
congruent_pinky_thumb,39,365,1,109,33.08,10.04,0.04,0.16,109,782,Correct
congruent_pinky_thumb,39,366,1,99,55.87,73.23,0.06,1.15,99,1300,Correct
congruent_pinky_thumb,39,367,2,112,40.82,20.29,0.05,0.32,112,748,Correct
congruent_pinky_thumb,39,368,2,113,24.01,46.2,0.03,0.73,112,900,Incorrect
congruent_pinky_thumb,39,369,1,99,46.53,65.3,0.05,1.03,99,1371,Correct
congruent_pinky_thumb,39,370,2,113,16.78,36.0,0.02,0.57,113,1382,Correct
congruent_pinky_thumb,39,371,1,99,35.86,64.94,0.04,1.02,99,1090,Correct
congruent_pinky_thumb,39,372,2,113,18.79,40.29,0.02,0.63,113,534,Correct
congruent_pinky_thumb,39,373,2,112,49.49,32.97,0.06,0.52,112,1054,Correct
congruent_pinky_thumb,39,374,2,113,68.76,82.24,0.08,1.29,112,595,Incorrect
congruent_pinky_thumb,39,375,2,112,52.8,44.45,0.06,0.7,112,1588,Correct
congruent_pinky_thumb,39,376,2,113,20.06,42.81,0.02,0.67,112,1274,Incorrect
congruent_pinky_thumb,39,377,2,113,60.33,86.01,0.07,1.35,112,879,Incorrect
congruent_pinky_thumb,39,378,1,109,43.05,34.44,0.05,0.54,109,4107,Correct
congruent_pinky_thumb,39,379,2,113,40.24,71.75,0.05,1.13,113,968,Correct
congruent_pinky_thumb,39,380,2,113,65.0,88.82,0.07,1.4,113,1190,Correct
congruent_pinky_thumb,39,381,1,99,54.83,65.27,0.06,1.03,99,1962,Correct
congruent_pinky_thumb,39,382,2,112,55.36,38.36,0.06,0.6,112,3505,Correct
congruent_pinky_thumb,39,383,1,99,36.48,63.62,0.04,1.0,99,921,Correct
congruent_pinky_thumb,39,384,1,109,53.83,33.87,0.06,0.53,109,684,Correct
congruent_pinky_thumb,39,385,1,109,61.25,39.87,0.07,0.63,109,1354,Correct
congruent_pinky_thumb,39,386,2,112,36.51,17.24,0.04,0.27,113,1580,Incorrect
congruent_pinky_thumb,39,387,1,99,16.32,31.94,0.02,0.5,99,1711,Correct
congruent_pinky_thumb,39,388,1,99,46.23,70.73,0.05,1.11,99,1589,Correct
congruent_pinky_thumb,39,389,2,113,50.02,64.35,0.06,1.01,113,2236,Correct
congruent_pinky_thumb,39,390,2,112,42.32,15.9,0.05,0.25,112,682,Correct
congruent_pinky_thumb,39,391,1,109,46.55,18.36,0.05,0.29,99,1588,Incorrect
congruent_pinky_thumb,39,392,1,109,54.72,26.77,0.06,0.42,109,626,Correct
congruent_pinky_thumb,39,393,2,113,41.95,58.06,0.05,0.91,113,1970,Correct
congruent_pinky_thumb,39,394,2,113,32.7,46.28,0.04,0.73,112,788,Incorrect
congruent_pinky_thumb,39,395,1,109,70.52,61.01,0.08,0.96,109,1995,Correct
congruent_pinky_thumb,39,396,2,112,31.57,18.17,0.04,0.29,112,833,Correct
congruent_pinky_thumb,39,397,1,109,85.05,64.55,0.1,1.01,109,722,Correct
congruent_pinky_thumb,39,398,1,99,19.01,45.6,0.02,0.72,99,949,Correct
